time,time_milisec,ax,ay,az,resultant
12:01.1,1.4211E+12,-0.4514612,2.4483087,9.482032,9.803415913
12:01.1,1.4211E+12,-0.5373825,2.5831783,9.589508,9.945866165
12:01.1,1.4211E+12,-0.75847274,2.6580226,9.86763,10.24746246
12:01.1,1.4211E+12,-0.76281375,2.4716601,9.829759,10.16440606
12:01.1,1.4211E+12,-0.62554914,2.5959017,9.688453,10.04968352
12:01.2,1.4211E+12,-0.58109164,2.6475444,9.69459,10.06639132
12:01.2,1.4211E+12,-0.5683681,2.6340723,9.584419,9.956026655
12:01.2,1.4211E+12,-0.7301816,2.711162,9.72797,10.12506617
12:01.2,1.4211E+12,-0.6503975,2.690505,9.767039,10.1516937
12:01.2,1.4211E+12,-0.47181883,2.6604176,9.591904,9.965192279
12:01.3,1.4211E+12,-0.35221756,2.6680517,9.5616665,9.933177907
12:01.3,1.4211E+12,-0.45699966,2.8036697,9.479637,9.896106817
12:01.3,1.4211E+12,-0.41388932,2.7755282,9.563313,9.966534839
12:01.3,1.4211E+12,-0.46942383,2.7210417,9.630524,10.01855375
12:01.3,1.4211E+12,-0.41598496,2.772684,9.577983,9.979908737
12:01.4,1.4211E+12,-0.34308654,2.704426,9.527088,9.909441666
12:01.4,1.4211E+12,-0.44637176,2.9807515,9.449849,9.91885948
12:01.4,1.4211E+12,-0.53528684,2.8946805,9.522597,9.967224329
12:01.4,1.4211E+12,-0.7240443,2.7246342,9.606573,10.01169898
12:01.4,1.4211E+12,-0.5354366,2.815046,9.71854,10.13218614
12:01.5,1.4211E+12,-0.57390654,2.793491,9.563014,9.979188216
12:01.5,1.4211E+12,-0.57929534,2.8346553,9.473649,9.905598373
12:01.5,1.4211E+12,-0.48139894,2.8707304,9.446556,9.884849935
12:01.5,1.4211E+12,-0.5264552,2.883304,9.575288,10.01382731
12:01.5,1.4211E+12,-0.43215135,2.8520193,9.684261,10.10473552
12:01.6,1.4211E+12,-0.53109556,2.8062143,9.441317,9.863841437
12:01.6,1.4211E+12,-0.46553192,2.802173,9.334439,9.757081784
12:01.6,1.4211E+12,-0.5560936,2.767445,9.282646,9.702345525
12:01.6,1.4211E+12,-0.64545774,2.8165429,9.354796,9.790900766
12:01.6,1.4211E+12,-0.628992,2.8120522,9.464069,9.893021305
12:01.7,1.4211E+12,-0.4778064,2.8635452,9.429641,9.866423843
12:01.7,1.4211E+12,-0.549657,2.8623476,9.744586,10.17114118
12:01.7,1.4211E+12,-0.5903723,2.8496242,9.897119,10.31609723
12:01.7,1.4211E+12,-0.72494245,2.7295737,9.698781,10.10160715
12:01.7,1.4211E+12,-0.56028485,2.8518696,9.562715,9.994628432
12:01.8,1.4211E+12,-0.5510042,2.873275,9.562415,9.999954774
12:01.8,1.4211E+12,-0.57660097,2.7945387,9.700578,10.11153444
12:01.8,1.4211E+12,-0.6066884,2.905009,9.625434,10.07254326
12:01.8,1.4211E+12,-0.5798941,2.8894415,9.507479,9.9537584
12:01.8,1.4211E+12,-0.5403763,2.836751,9.359587,9.79494929
12:01.9,1.4211E+12,-0.5737569,2.707869,9.525442,9.91946555
12:01.9,1.4211E+12,-0.64860123,2.799179,9.58382,10.00528323
12:01.9,1.4211E+12,-0.69889665,2.7298732,9.844278,10.23965202
12:01.9,1.4211E+12,-0.7563771,2.725083,9.721833,10.12483188
12:01.9,1.4211E+12,-0.50265473,2.5162673,9.748478,10.08053006
12:02.0,1.4211E+12,-0.74904233,2.895878,9.751322,10.19977718
12:02.0,1.4211E+12,-0.49307466,2.6553283,9.826466,10.19084516
12:02.0,1.4211E+12,-0.41942778,2.7496321,9.649833,10.04269253
12:02.0,1.4211E+12,-0.38365218,2.9020152,9.651031,10.08520107
12:02.0,1.4211E+12,-0.631387,2.7818153,9.731414,10.14088578
12:02.1,1.4211E+12,-0.7379654,2.6517358,9.705816,10.0885658
12:02.1,1.4211E+12,-0.74829394,2.6890082,9.854308,10.24197711
12:02.1,1.4211E+12,-0.6933582,2.688559,9.81464,10.19981634
12:02.1,1.4211E+12,-0.66940796,2.80352,9.60313,10.02636211
12:02.1,1.4211E+12,-0.69246,2.757416,9.489816,9.9065358
12:02.2,1.4211E+12,-0.6104306,2.6129663,9.426647,9.801116878
12:02.2,1.4211E+12,-0.7250922,2.757865,9.541159,9.958177199
12:02.2,1.4211E+12,-0.73152876,2.665956,9.647887,10.03614365
12:02.2,1.4211E+12,-0.5189708,2.6279352,9.702823,10.06579099
12:02.2,1.4211E+12,-0.60743684,2.6821225,9.684112,10.06701474
12:02.3,1.4211E+12,-0.80787003,2.6602678,9.749975,10.13862374
12:02.3,1.4211E+12,-0.68722093,2.6934988,9.74713,10.13576596
12:02.3,1.4211E+12,-0.7003935,2.535727,9.524095,9.880731149
12:02.3,1.4211E+12,-0.74919206,2.6653574,9.485774,9.881565017
12:02.3,1.4211E+12,-0.85502195,2.5447083,9.700129,10.06474567
12:02.4,1.4211E+12,-0.9038205,2.4730074,9.628278,9.981803161
12:02.4,1.4211E+12,-0.7391629,2.6909542,9.54535,9.94491342
12:02.4,1.4211E+12,-0.6971004,2.5051904,9.297615,9.6544069
12:02.4,1.4211E+12,-0.780477,2.6156607,9.507928,9.891992726
12:02.4,1.4211E+12,-0.7367679,2.7695408,9.72363,10.13716743
12:02.5,1.4211E+12,-0.5601352,2.4932153,9.684561,10.01601696
12:02.5,1.4211E+12,-0.62569886,2.5466542,9.676627,10.02566989
12:02.5,1.4211E+12,-0.7222481,2.5210574,9.653126,10.00301026
12:02.6,1.4211E+12,-0.81700104,2.5744963,9.645941,10.01697058
12:02.6,1.4211E+12,-0.8674461,2.530338,9.642199,10.00635172
12:02.6,1.4211E+12,-0.7020401,2.6146128,9.419013,9.800350315
12:02.6,1.4211E+12,-0.7143146,2.4692652,9.548643,9.888584283
12:02.6,1.4211E+12,-0.80307996,2.5650659,9.649982,10.01731766
12:02.6,1.4211E+12,-0.8339159,2.5756938,9.8833475,10.2474471
12:02.6,1.4211E+12,-0.8571176,2.6041346,9.8817005,10.25495843
12:02.7,1.4211E+12,-0.6471043,2.6690996,9.683363,10.06530455
12:02.7,1.4211E+12,-0.6572832,2.6791286,9.66061,10.04674757
12:02.7,1.4211E+12,-0.5930667,2.5216563,9.6582155,9.999580254
12:02.7,1.4211E+12,-0.7048842,2.5195606,9.763597,10.10805984
12:02.8,1.4211E+12,-0.5797444,2.7481353,9.825119,10.21867479
12:02.8,1.4211E+12,-0.53453845,2.5927584,9.72363,10.07755466
12:02.8,1.4211E+12,-0.4260141,2.5728498,9.605375,9.953103687
12:02.8,1.4211E+12,-0.71820647,2.6397605,9.41587,9.805241654
12:02.8,1.4211E+12,-0.97462326,2.6177564,9.785002,10.17589324
12:02.9,1.4211E+12,-0.6542894,2.5090823,9.881252,10.21580783
12:02.9,1.4211E+12,-0.5071454,2.459236,9.620194,9.942493186
12:02.9,1.4211E+12,-0.5601352,2.518363,9.31453,9.665214574
12:02.9,1.4211E+12,-0.65458876,2.450105,9.148226,9.493236535
12:02.9,1.4211E+12,-0.9937834,2.2059627,9.436377,9.741616281
12:03.0,1.4211E+12,-1.1952645,2.2773643,9.763147,10.09624112
12:03.0,1.4211E+12,-0.93360853,2.4830365,10.387948,10.7213133
12:03.0,1.4211E+12,-0.00239502,2.6725423,9.979747,10.3314006
12:03.0,1.4211E+12,0.4923262,3.8636155,10.151889,10.8733969
12:03.0,1.4211E+12,0.678539,4.1212296,8.974737,9.899032923
12:03.0,1.4211E+12,1.8278489,1.4929953,10.676548,10.9342921
12:03.1,1.4211E+12,3.4591568,3.9219942,8.534652,10.00940003
12:03.1,1.4211E+12,2.2430854,6.3098288,7.722441,10.22161761
12:03.1,1.4211E+12,0.1818718,4.7957273,7.00154,8.488441557
12:03.1,1.4211E+12,-2.0550764,5.503755,5.9929376,8.392255906
12:03.1,1.4211E+12,-3.06802,6.8608327,6.0044637,9.619633901
12:03.2,1.4211E+12,-1.1159294,5.253475,7.5564365,9.270600335
12:03.2,1.4211E+12,0.9331595,4.754563,10.303075,11.38551757
12:03.2,1.4211E+12,0.6538403,4.6985793,10.460248,11.48568425
12:03.3,1.4211E+12,-1.2540921,5.118007,8.599916,10.08589599
12:03.3,1.4211E+12,-2.060166,5.691165,7.8362045,9.901502107
12:03.3,1.4211E+12,-0.468376,5.545368,8.535999,10.18988524
12:03.3,1.4211E+12,-0.5108876,5.3780165,8.943152,10.44815942
12:03.4,1.4211E+12,-1.2774435,4.6660967,9.368717,10.54405892
12:03.4,1.4211E+12,-1.3850697,4.771927,8.495434,9.841854714
12:03.4,1.4211E+12,-0.9134006,5.270989,8.015831,9.636969042
12:03.4,1.4211E+12,-0.7566765,5.283862,7.7746825,9.430665138
12:03.4,1.4211E+12,-0.68662214,4.82327,8.071515,9.427870271
12:03.4,1.4211E+12,-1.499432,5.216652,9.373807,10.8318979
12:03.5,1.4211E+12,-1.2064911,4.810846,9.526639,10.74042414
12:03.5,1.4211E+12,-1.025218,5.2639537,8.678503,10.20179861
12:03.5,1.4211E+12,-1.0832973,5.8752823,8.339607,10.25872897
12:03.5,1.4211E+12,-1.7727635,5.5080957,8.66099,10.41607203
12:03.5,1.4211E+12,-2.0112176,5.521418,8.769962,10.55667023
12:03.5,1.4211E+12,-1.4756314,5.3775673,8.758138,10.38271156
12:03.5,1.4211E+12,-1.045426,5.702841,8.1126795,9.97150338
12:03.6,1.4211E+12,-1.6980689,5.944738,8.21342,10.28025369
12:03.6,1.4211E+12,-1.40902,6.0546093,7.373816,9.644521426
12:03.6,1.4211E+12,-1.2005036,5.70793,8.572523,10.36869444
12:03.6,1.4211E+12,-1.635499,5.71751,8.6876335,10.52804604
12:03.6,1.4211E+12,-1.533561,5.8356147,8.015082,10.03233511
12:03.7,1.4211E+12,-1.0994637,5.7312818,6.6815057,8.871241735
12:03.7,1.4211E+12,-1.495091,5.521568,7.43459,9.380625712
12:03.7,1.4211E+12,-1.9229013,5.1548305,9.509425,10.98630924
12:03.7,1.4211E+12,-1.087788,4.843777,9.844877,11.02574539
12:03.7,1.4211E+12,-1.767225,4.6339135,8.359067,9.719580219
12:03.8,1.4211E+12,-1.8848804,4.556974,7.9020677,9.314583195
12:03.8,1.4211E+12,-1.2942086,3.6962636,8.62701,9.474314859
12:03.8,1.4211E+12,-1.6786094,3.4519715,10.024803,10.73454759
12:03.8,1.4211E+12,-2.199526,4.0965314,11.122471,12.0552414
12:03.8,1.4211E+12,-2.100881,3.7883222,10.196496,11.07852051
12:03.9,1.4211E+12,-1.5188915,2.940036,10.020163,10.55246462
12:03.9,1.4211E+12,-1.4076728,3.1452594,8.964558,9.604035586
12:03.9,1.4211E+12,-1.7280066,4.0954833,8.553812,9.639849065
12:03.9,1.4211E+12,-1.9645147,5.1178575,8.220006,9.880297669
12:03.9,1.4211E+12,-1.6190332,4.450994,9.65642,10.75542018
12:04.0,1.4211E+12,-1.0991642,2.3230193,10.245744,10.56313641
12:04.0,1.4211E+12,-0.8937914,2.0390596,10.496173,10.72969127
12:04.0,1.4211E+12,-0.7048842,3.0085936,11.0299635,11.4546319
12:04.0,1.4211E+12,-0.5999524,3.8208046,11.750864,12.37098603
12:04.0,1.4211E+12,-0.07349716,2.7463388,10.317744,10.67724777
12:04.1,1.4211E+12,0.51807266,1.2223581,8.733588,8.833918607
12:04.1,1.4211E+12,-0.3237767,1.2888199,8.744515,8.844909874
12:04.1,1.4211E+12,-1.2593312,1.8940114,9.799222,10.05971899
12:04.1,1.4211E+12,-1.2969031,2.0320244,9.263935,9.572438169
12:04.1,1.4211E+12,-0.39877075,2.352957,8.769814,9.088732714
12:04.2,1.4211E+12,0.34054184,3.034789,9.048234,9.549683321
12:04.2,1.4211E+12,-0.09071136,2.9970675,9.238788,9.713178978
12:04.2,1.4211E+12,-0.38320312,2.0429516,10.275532,10.48365651
12:04.2,1.4211E+12,-0.23411316,1.830693,10.229129,10.39429295
12:04.2,1.4211E+12,-0.932411,2.08696,9.2554035,9.533482379
12:04.3,1.4211E+12,-0.803529,2.7830126,9.402248,9.838347699
12:04.3,1.4211E+12,-0.42391846,2.5867708,9.240584,9.605179993
12:04.3,1.4211E+12,-0.4447252,2.2373972,9.563762,9.83205321
12:04.3,1.4211E+12,-0.84364563,1.9941531,9.675131,9.914461377
12:04.3,1.4211E+12,-1.4395565,2.4243586,9.695638,10.09728844
12:04.4,1.4211E+12,-1.1385324,2.3555017,9.680519,10.02781593
12:04.4,1.4211E+12,-0.93854827,2.1865032,9.720187,10.00718264
12:04.4,1.4211E+12,-1.1079959,2.3432271,9.639954,9.982338467
12:04.4,1.4211E+12,-1.0870395,2.3447242,9.533375,9.877480718
12:04.4,1.4211E+12,-1.1259586,2.5363257,9.446257,9.845430521
12:04.5,1.4211E+12,-1.0106982,2.5842261,9.610465,10.00303818
12:04.5,1.4211E+12,-1.0559043,2.4716601,9.6582155,10.02522639
12:04.5,1.4211E+12,-1.0915302,2.7229874,9.586814,10.02562224
12:04.5,1.4211E+12,-0.8771759,2.310146,9.724827,10.03386627
12:04.5,1.4211E+12,-0.73751634,2.2079086,9.882449,10.15291037
12:04.6,1.4211E+12,-0.8479866,2.8502228,9.8094015,10.25022971
12:04.6,1.4211E+12,-0.8373587,2.636168,9.775123,10.15891633
12:04.6,1.4211E+12,-1.1837384,2.6711953,10.158924,10.57072645
12:04.6,1.4211E+12,-1.007405,2.5551865,9.760004,10.13910849
12:04.6,1.4211E+12,-0.658331,1.8284477,9.101823,9.306976019
12:04.7,1.4211E+12,-1.1624826,2.4170237,9.854458,10.21291887
12:04.7,1.4211E+12,-1.2590318,2.5277934,10.283765,10.66446075
12:04.7,1.4211E+12,-0.8352631,2.5855732,10.217303,10.57242327
12:04.8,1.4211E+12,-0.9635463,2.4915688,10.108629,10.45565478
12:04.8,1.4211E+12,-0.95187056,2.4132814,9.685908,10.02730265
12:04.8,1.4211E+12,-0.79170364,2.1290226,9.312734,9.585747047
12:04.8,1.4211E+12,-0.9099577,2.4084916,9.14628,9.501752083
12:04.8,1.4211E+12,-0.78466827,2.1835093,9.473799,9.753783094
12:04.8,1.4211E+12,-0.920885,2.3013144,10.003847,10.30635881
12:04.8,1.4211E+12,-1.0267149,2.2489233,10.1575775,10.45409873
12:04.9,1.4211E+12,-0.997825,2.3258634,9.629326,9.956365527
12:04.9,1.4211E+12,-0.8111632,2.3117926,9.623487,9.930451792
12:04.9,1.4211E+12,-0.9780661,2.381847,9.390123,9.73674578
12:04.9,1.4211E+12,-0.8095166,2.5716522,9.284143,9.667679319
12:04.9,1.4211E+12,-0.7873627,2.4816892,9.585617,9.9329137
12:05.0,1.4211E+12,-0.88885164,2.629432,9.508826,9.905641917
12:05.0,1.4211E+12,-0.83182025,2.5969496,9.524544,9.907220123
12:05.0,1.4211E+12,-0.7640112,2.4921675,9.602831,9.95032538
12:05.0,1.4211E+12,-0.947829,2.636168,9.67049,10.06807521
12:05.0,1.4211E+12,-1.1054512,2.7583141,9.675281,10.12133299
12:05.1,1.4211E+12,-1.1557466,2.8859985,9.543704,10.03728168
12:05.1,1.4211E+12,-1.0874885,2.802472,10.04097,10.48129568
12:05.1,1.4211E+12,-1.1362871,2.4399261,9.976304,10.33300679
12:05.1,1.4211E+12,-1.1160791,2.4792943,9.465567,9.848324295
12:05.1,1.4211E+12,-1.1009605,2.9734168,9.064101,9.602668818
12:05.2,1.4211E+12,-1.3989908,3.1689103,9.495355,10.10746923
12:05.2,1.4211E+12,-1.7010627,2.8629465,9.898466,10.44364429
12:05.2,1.4211E+12,-1.4343174,2.5008495,9.792187,10.20776375
12:05.2,1.4211E+12,-1.42339,2.764601,9.618698,10.10882827
12:05.2,1.4211E+12,-1.2774435,3.13538,9.176667,9.781292699
12:05.3,1.4211E+12,-1.1371852,3.635041,8.935967,9.713815907
12:05.3,1.4211E+12,-1.0029144,3.0674212,9.193132,9.743130199
12:05.3,1.4211E+12,-1.2141252,2.705923,9.344768,9.804122003
12:05.3,1.4211E+12,-1.3400134,3.1246023,9.791738,10.36517769
12:05.3,1.4211E+12,-1.251248,3.1103818,10.144255,10.68391342
12:05.4,1.4211E+12,-1.1014096,3.185825,10.227182,10.76837201
12:05.4,1.4211E+12,-0.93196195,3.3343163,9.896819,10.48490556
12:05.4,1.4211E+12,-0.8735834,3.0404773,9.39147,9.90996261
12:05.4,1.4211E+12,-0.9011261,3.1783407,9.44461,10.00572516
12:05.4,1.4211E+12,-0.81415695,3.3352144,9.345516,9.956162712
12:05.5,1.4211E+12,-0.8893007,3.2751892,9.2521105,9.854910894
12:05.5,1.4211E+12,-0.8813672,3.2891102,9.418414,10.01506746
12:05.5,1.4211E+12,-0.80876815,3.1855257,9.428742,9.985131727
12:05.5,1.4211E+12,-0.7246431,3.032544,9.533674,10.0305718
12:05.5,1.4211E+12,-0.66566575,3.0355375,9.542656,10.03592957
12:05.6,1.4211E+12,-0.68767,2.9509635,9.268725,9.751427523
12:05.6,1.4211E+12,-0.404908,3.3379087,9.216334,9.810524827
12:05.6,1.4211E+12,-0.5426216,3.3934433,10.019863,10.59280653
12:05.6,1.4211E+12,-0.7607181,3.166515,9.833201,10.35844347
12:05.6,1.4211E+12,-0.9057664,2.945425,9.474398,9.962939258
12:05.7,1.4211E+12,-0.8851094,3.0205686,9.235944,9.757556809
12:05.7,1.4211E+12,-1.0910811,3.0005105,9.136849,9.678612033
12:05.7,1.4211E+12,-1.0767109,3.177143,9.690548,10.25476789
12:05.7,1.4211E+12,-0.5974077,3.0337412,10.177336,10.63666535
12:05.7,1.4211E+12,-0.7008426,2.9175828,9.926757,10.37034109
12:05.8,1.4211E+12,-1.165177,2.8512707,9.672436,10.15102952
12:05.8,1.4211E+12,-0.9969269,2.943479,9.11754,9.632625162
12:05.8,1.4211E+12,-1.0380913,2.8145971,9.216035,9.692001419
12:05.8,1.4211E+12,-1.0621911,2.669848,9.591005,10.01217834
12:05.8,1.4211E+12,-1.1554472,2.5773404,9.679321,10.08300535
12:05.9,1.4211E+12,-1.140179,2.8253746,9.963431,10.41886304
12:05.9,1.4211E+12,-1.2090358,2.8285182,10.157128,10.61270616
12:05.9,1.4211E+12,-1.2196637,2.6840684,9.983339,10.4095562
12:05.9,1.4211E+12,-1.1960129,2.7442434,9.529484,9.988612717
12:05.9,1.4211E+12,-1.0826985,2.6502388,9.360186,9.788211466
12:06.0,1.4211E+12,-0.8884026,2.6430538,9.206755,9.619736493
12:06.0,1.4211E+12,-0.9129515,2.6152117,9.661359,10.05060547
12:06.0,1.4211E+12,-1.1458671,2.531835,9.950408,10.33120609
12:06.0,1.4211E+12,-1.3154645,2.6834698,9.830807,10.27502911
12:06.0,1.4211E+12,-1.3991405,2.4260051,9.476943,9.882081942
12:06.1,1.4211E+12,-1.5417938,2.4327412,9.187894,9.628746233
12:06.1,1.4211E+12,-1.4123131,2.5436604,9.012459,9.470441054
12:06.1,1.4211E+12,-1.3600717,2.5026457,9.489367,9.907629211
12:06.1,1.4211E+12,-1.2798386,2.4544458,9.813593,10.19651404
12:06.1,1.4211E+12,-1.2051439,2.3998096,9.713151,10.07753741
12:06.2,1.4211E+12,-1.0892848,2.6954448,9.75746,10.181355
12:06.2,1.4211E+12,-0.9145981,2.6265879,9.537267,9.934531469
12:06.2,1.4211E+12,-0.97058165,2.5849745,9.65642,10.04343413
12:06.2,1.4211E+12,-0.8250842,2.7186465,9.725426,10.13191559
12:06.2,1.4211E+12,-0.8625064,2.5658143,9.562864,9.938595886
12:06.3,1.4211E+12,-0.8866063,2.66401,9.684411,10.08319574
12:06.3,1.4211E+12,-0.6954538,2.667902,9.806856,10.18703989
12:06.3,1.4211E+12,-0.8092172,2.6249413,9.753867,10.13326555
12:06.3,1.4211E+12,-0.8770262,2.6120682,9.621392,10.00815963
12:06.3,1.4211E+12,-1.0172845,2.602039,9.848919,10.23751338
12:06.4,1.4211E+12,-1.0047107,2.5801845,9.9468155,10.32501498
12:06.4,1.4211E+12,-0.9970766,2.3614893,9.987531,10.31123508
12:06.4,1.4211E+12,-1.1231145,2.4339385,9.652977,10.01825373
12:06.4,1.4211E+12,-1.1118878,2.7162516,9.484128,9.927890066
12:06.4,1.4211E+12,-0.945434,2.6923013,9.565109,9.981665288
12:06.5,1.4211E+12,-0.6990463,2.6393116,9.481133,9.866433723
12:06.5,1.4211E+12,-0.8367599,2.6830206,9.563164,9.967591101
12:06.5,1.4211E+12,-0.99977094,2.6512866,9.340426,9.760759214
12:06.5,1.4211E+12,-1.0590477,2.8238778,9.585018,10.04830523
12:06.5,1.4211E+12,-0.82972455,2.667453,9.746831,10.13925357
12:06.6,1.4211E+12,-0.7818242,2.6363177,9.579779,9.96662359
12:06.6,1.4211E+12,-0.6629713,2.5647666,9.482481,9.845557606
12:06.6,1.4211E+12,-0.7604187,2.8042686,9.356893,9.797632653
12:06.6,1.4211E+12,-0.89004916,2.851121,9.282198,9.750911659
12:06.6,1.4211E+12,-0.77419007,2.770439,9.5455,9.969517178
12:06.7,1.4211E+12,-0.6951544,2.6792784,9.601483,9.992509604
12:06.7,1.4211E+12,-0.63632673,2.775229,9.645941,10.05738462
12:06.7,1.4211E+12,-0.54726195,2.7038274,9.553134,9.943467578
12:06.7,1.4211E+12,-0.5053491,2.7072701,9.405392,9.800310596
12:06.7,1.4211E+12,-0.66401917,2.6589208,9.643396,10.02526148
12:06.8,1.4211E+12,-0.74095917,2.5661137,9.735006,10.09476606
12:06.8,1.4211E+12,-0.34608033,2.258204,9.923614,10.18319065
12:06.8,1.4211E+12,-0.6908134,2.7288253,9.528735,9.935819109
12:06.8,1.4211E+12,-0.67674273,2.4629781,9.686058,10.01718331
12:06.8,1.4211E+12,-0.58558226,2.4071443,9.654473,9.967251335
12:06.9,1.4211E+12,-0.62450135,2.311643,9.774973,10.06398492
12:06.9,1.4211E+12,-0.75338334,2.2960753,9.738749,10.03408094
12:06.9,1.4211E+12,-0.8741821,2.2493725,9.594448,9.893295882
12:06.9,1.4211E+12,-0.8421487,2.4466622,9.640852,9.982053779
12:06.9,1.4211E+12,-0.76161623,2.4291487,9.663305,9.993011869
12:07.0,1.4211E+12,-0.7934999,2.3016138,9.759705,10.05877278
12:07.0,1.4211E+12,-0.9011261,2.16884,9.795181,10.07280825
12:07.0,1.4211E+12,-0.7417076,2.0270846,9.707463,9.944548257
12:07.0,1.4211E+12,-0.895887,2.1634512,9.731114,10.00888177
12:07.0,1.4211E+12,-0.88735473,2.386637,9.78605,10.11188455
12:07.1,1.4211E+12,-0.8018825,2.2065613,9.802964,10.08018013
12:07.1,1.4211E+12,-0.9473799,2.2137465,9.739646,10.03289123
12:07.1,1.4211E+12,-0.87088895,2.3514602,9.746981,10.06436542
12:07.1,1.4211E+12,-0.7867639,2.227368,9.784103,10.06522912
12:07.1,1.4211E+12,-0.83406556,2.433789,9.628278,9.966079043
12:07.2,1.4211E+12,-0.84843564,2.1472847,9.653425,9.925688331
12:07.2,1.4211E+12,-0.7518864,2.177971,9.860894,10.12650588
12:07.2,1.4211E+12,-1.0208771,2.3079007,9.843081,10.16143884
12:07.2,1.4211E+12,-0.9104068,2.3207738,10.000704,10.3067411
12:07.2,1.4211E+12,-0.9190887,2.3378384,10.030043,10.33982471
12:07.3,1.4211E+12,-0.8321196,2.0624113,9.904753,10.15135929
12:07.3,1.4211E+12,-0.83182025,2.1689897,9.798624,10.07022708
12:07.3,1.4211E+12,-0.8903485,2.1002824,9.69429,9.959074516
12:07.3,1.4211E+12,-0.757874,2.2517674,9.76689,10.05171476
12:07.3,1.4211E+12,-0.79230237,2.1652474,9.604029,9.8769131
12:07.4,1.4211E+12,-0.7705975,2.2611978,9.628877,9.920791716
12:07.4,1.4211E+12,-0.9226813,2.3161335,9.55014,9.87020715
12:07.4,1.4211E+12,-0.9009764,2.257755,9.841135,10.13692035
12:07.4,1.4211E+12,-0.8399034,2.2978716,9.685908,9.990118387
12:07.4,1.4211E+12,-0.9985735,2.3945704,9.792486,10.13034543
12:07.5,1.4211E+12,-0.91235274,2.3237677,9.458082,9.782003832
12:07.5,1.4211E+12,-1.0062076,2.2269192,9.569001,9.876102622
12:07.5,1.4211E+12,-0.88466036,2.2632935,9.626781,9.928747849
12:07.5,1.4211E+12,-0.99737597,2.2614973,9.703721,10.01355732
12:07.5,1.4211E+12,-0.9542656,2.22647,9.834699,10.12862754
12:07.6,1.4211E+12,-0.98195803,2.3227198,9.742191,10.06327751
12:07.6,1.4211E+12,-0.8518785,2.2041664,9.798325,10.07924696
12:07.6,1.4211E+12,-0.9868977,2.230811,9.760753,10.06095343
12:07.6,1.4211E+12,-0.9559122,2.3215225,9.764495,10.08209291
12:07.6,1.4211E+12,-0.8149054,2.2725742,9.554631,9.854929622
12:07.7,1.4211E+12,-0.8946895,2.3170316,9.486672,9.806429033
12:07.7,1.4211E+12,-0.81161225,2.289489,9.592503,9.895281104
12:07.7,1.4211E+12,-0.8960367,2.4122338,9.6372595,9.974894703
12:07.7,1.4211E+12,-0.9277707,2.3195765,9.668394,9.985941926
12:07.8,1.4211E+12,-0.929567,2.2261705,9.682316,9.978335183
12:07.8,1.4211E+12,-0.9321117,2.377955,9.594598,9.928736727
12:07.8,1.4211E+12,-0.8779243,2.1757255,9.678274,9.958590269
12:07.8,1.4211E+12,-0.92178315,2.3851402,9.781709,10.11041092
12:07.8,1.4211E+12,-0.93196195,2.3026617,9.734108,10.04607697
12:07.8,1.4211E+12,-0.97746736,2.4008574,9.719289,10.05903263
12:07.9,1.4211E+12,-1.0313553,2.2734723,9.735604,10.0505898
12:07.9,1.4211E+12,-0.9602531,2.2439835,9.76195,10.06246569
12:07.9,1.4211E+12,-0.79679304,2.3887327,9.582623,9.907955724
12:07.9,1.4211E+12,-0.7981403,2.3022125,9.455687,9.764590466
12:07.9,1.4211E+12,-0.7430548,2.1791685,9.7040205,9.973410633
12:08.0,1.4211E+12,-0.8827144,2.2876928,9.792336,10.09468015
12:08.0,1.4211E+12,-0.9425899,2.1302202,9.764944,10.03894642
12:08.0,1.4211E+12,-0.9315129,2.252965,9.738299,10.03882638
12:08.0,1.4211E+12,-0.8150551,2.2269192,9.543405,9.833619015
12:08.0,1.4211E+12,-0.8268805,2.2459295,9.5616665,9.856642275
12:08.1,1.4211E+12,-0.8649014,2.3373895,9.672136,9.988075836
12:08.1,1.4211E+12,-0.85367477,2.292782,9.764345,10.06618315
12:08.1,1.4211E+12,-0.82044387,2.3641837,9.5440035,9.866635471
12:08.1,1.4211E+12,-0.7711963,2.2004242,9.407337,9.691986371
12:08.1,1.4211E+12,-0.74889266,2.3294559,9.461824,9.773091548
12:08.2,1.4211E+12,-0.735271,2.3999593,9.818532,10.13429814
12:08.2,1.4211E+12,-0.78152484,1.9607725,10.316996,10.53070825
12:08.2,1.4211E+12,-0.8399034,2.0968397,10.363849,10.60714573
12:08.2,1.4211E+12,-0.9846524,2.0987856,10.087822,10.35077746
12:08.2,1.4211E+12,-0.94932586,2.251468,9.704619,10.00749508
12:08.3,1.4211E+12,-1.0590477,2.1463866,9.537416,9.833151144
12:08.3,1.4211E+12,-1.0689272,2.202819,9.830657,10.13098386
12:08.3,1.4211E+12,-0.9327104,2.5682094,9.886491,10.25711229
12:08.3,1.4211E+12,-0.97716796,2.41403,10.206526,10.53354504
12:08.3,1.4211E+12,-1.3721966,2.0540285,10.162517,10.45842762
12:08.4,1.4211E+12,-1.0907817,2.0160077,9.624236,9.893432688
12:08.4,1.4211E+12,-0.9647438,2.3087988,9.380992,9.708980039
12:08.4,1.4211E+12,-1.0246193,2.5399182,9.166339,9.566754927
12:08.4,1.4211E+12,-0.9071137,2.6918523,9.392219,9.812374932
12:08.4,1.4211E+12,-0.85307604,2.4860303,9.499097,9.856009801
12:08.5,1.4211E+12,-1.0365944,2.3315516,9.830956,10.15669024
12:08.5,1.4211E+12,-0.97731763,2.315385,9.959839,10.27202757
12:08.5,1.4211E+12,-1.1150312,2.3311024,9.990674,10.31944281
12:08.5,1.4211E+12,-1.1380833,2.3330483,9.802217,10.14010878
12:08.5,1.4211E+12,-1.0642868,2.3300545,9.667646,10.0012619
12:08.6,1.4211E+12,-0.95097244,2.2156925,9.67543,9.971338301
12:08.6,1.4211E+12,-1.0641371,2.4768991,9.611064,9.981982174
12:08.6,1.4211E+12,-1.0879376,2.3297553,9.596544,9.935040248
12:08.6,1.4211E+12,-1.0975177,2.2891896,9.881103,10.20201601
12:08.6,1.4211E+12,-1.1713142,2.1395009,10.075548,10.36658616
12:08.7,1.4211E+12,-1.3742921,2.1183949,10.047855,10.36029275
12:08.7,1.4211E+12,-0.9671388,2.3519092,9.648786,9.978271675
12:08.7,1.4211E+12,-0.7497908,2.2833517,9.67992,9.973802306
12:08.7,1.4211E+12,-0.8171507,2.1692889,9.750873,10.02262809
12:08.7,1.4211E+12,-1.3356725,2.623744,10.7049885,11.10246965
12:08.8,1.4211E+12,-1.7729132,3.2789314,11.296109,11.89523816
12:08.8,1.4211E+12,0.38185593,0.893492,11.515254,11.55617656
12:08.8,1.4211E+12,-0.7526349,2.8259733,7.7140584,8.24980493
12:08.8,1.4211E+12,0.36703673,2.5027955,7.8809614,8.276971298
12:08.8,1.4211E+12,0.4236191,2.5306375,8.71817,9.08790776
12:08.9,1.4211E+12,0.2255809,3.2340248,9.089848,9.65065489
12:08.9,1.4211E+12,0.11421249,2.8066635,8.452922,8.907429193
12:08.9,1.4211E+12,0.3106041,2.5776398,7.7751317,8.197156507
12:08.9,1.4211E+12,0.55295014,2.6815238,7.7877054,8.254979052
12:08.9,1.4211E+12,0.94872713,3.0443692,8.037386,8.646839926
12:09.1,1.4211E+12,0.9048683,2.853516,8.274194,8.799069641
12:09.1,1.4211E+12,0.37347335,2.927612,8.922496,9.397942819
12:09.1,1.4211E+12,0.08068222,2.8940818,9.191936,9.637110901
12:09.1,1.4211E+12,-0.5216652,3.0262568,9.534423,10.01676528
12:09.1,1.4211E+12,-0.7831714,3.0828393,9.93993,10.43644882
12:09.1,1.4211E+12,-0.8571176,2.5126748,10.227931,10.56687077
12:09.1,1.4211E+12,-0.57106245,2.1149518,10.2933445,10.52388115
12:09.1,1.4211E+12,-0.3598517,1.7094452,10.612032,10.75485562
12:09.1,1.4211E+12,-0.2667453,1.9435583,10.547815,10.72869858
12:09.2,1.4211E+12,-0.10807525,1.8351837,10.284963,10.44796839
12:09.2,1.4211E+12,-0.028590545,1.7200731,10.162517,10.30709565
12:09.2,1.4211E+12,-0.065264285,1.5756235,10.25233,10.37290313
12:09.2,1.4211E+12,0.24339385,1.4651532,10.255474,10.36246406
12:09.2,1.4211E+12,0.45280838,1.3130695,10.553055,10.64406674
12:09.2,1.4211E+12,0.74006104,1.4401551,10.637928,10.76044837
12:09.3,1.4211E+12,0.034428407,1.2415183,15.814613,15.86330789
12:09.3,1.4211E+12,1.525328,0.88061875,9.659114,9.818380628
12:09.3,1.4211E+12,0.9331595,1.9157163,9.470356,9.707131315
12:09.3,1.4211E+12,1.4874568,2.1824615,8.81008,9.19745484
12:09.3,1.4211E+12,1.1421249,2.913691,8.755742,9.298228998
12:09.4,1.4211E+12,0.44517425,2.499652,9.513916,9.846879602
12:09.4,1.4211E+12,0.6816824,1.6202307,8.753946,8.928684617
12:09.4,1.4211E+12,0.6030958,1.6274158,8.7279005,8.898789461
12:09.4,1.4211E+12,0.5733078,1.439257,9.962533,10.08227188
12:09.4,1.4211E+12,-0.18726058,1.4359639,10.498718,10.59811957
12:09.5,1.4211E+12,-0.20716919,1.7320482,9.968071,10.11955283
12:09.5,1.4211E+12,0.24668701,2.030677,9.701326,9.914647231
12:09.5,1.4211E+12,0.13606705,2.4504044,9.854608,10.15560411
12:09.5,1.4211E+12,0.23785537,1.72636,9.402697,9.562824107
12:09.5,1.4211E+12,0.08996292,1.2969031,9.57888,9.666695042
12:09.6,1.4211E+12,-0.19624192,1.2433145,10.012528,10.09133583
12:09.6,1.4211E+12,-0.1300795,1.9214044,10.318343,10.49651932
12:09.6,1.4211E+12,-0.025447082,2.2665865,10.056388,10.30868573
12:09.6,1.4211E+12,0.066461794,2.4426205,9.724977,10.02726232
12:09.6,1.4211E+12,-0.24384293,1.9336789,9.601184,9.797005035
12:09.7,1.4211E+12,-0.55414766,1.3705499,9.695039,9.807102929
12:09.7,1.4211E+12,-1.6742684,1.411864,10.505454,10.73131392
12:09.7,1.4211E+12,-1.3804294,1.0988649,10.736723,10.88073114
12:09.7,1.4211E+12,-0.41224274,2.0314257,10.179282,10.38818639
12:09.8,1.4211E+12,-0.13891113,2.24578,9.687405,9.945282286
12:09.8,1.4211E+12,-0.035775606,2.407294,9.695488,9.989936529
12:09.8,1.4211E+12,-0.07634125,2.626139,9.64654,9.997908181
12:09.8,1.4211E+12,0.3860472,2.0963905,9.156908,9.401747162
12:09.8,1.4211E+12,0.35521135,1.9764899,9.009614,9.230700507
12:09.8,1.4211E+12,0.102237396,2.1589603,9.408236,9.653313768
12:09.9,1.4211E+12,0.29563522,2.223177,9.263637,9.531258397
12:09.9,1.4211E+12,0.2640509,1.6667839,9.472752,9.62189804
12:09.9,1.4211E+12,0.24069947,1.3326787,9.998907,10.09019871
12:09.9,1.4211E+12,0.30072463,2.0287313,10.028096,10.2356678
12:09.9,1.4211E+12,-0.030087434,1.8955083,9.999057,10.17718025
12:10.0,1.4211E+12,-0.3742218,1.9760408,9.737251,9.942778094
12:10.0,1.4211E+12,-0.22318588,1.237776,9.871372,9.951175133
12:10.0,1.4211E+12,0.19758911,1.0846444,9.67064,9.733281715
12:10.0,1.4211E+12,0.3106041,0.9577084,9.546997,9.599939167
12:10.0,1.4211E+12,-0.052391052,1.3578264,9.427695,9.525117866
12:10.1,1.4211E+12,-0.10912308,1.1635305,10.064471,10.13209196
12:10.1,1.4211E+12,-0.07634125,1.5575111,10.679542,10.79278862
12:10.1,1.4211E+12,0.5105882,1.7199234,11.189232,11.33215556
12:10.1,1.4211E+12,0.6059399,2.0913012,10.490186,10.71376247
12:10.1,1.4211E+12,0.024249572,1.8251545,9.304801,9.48214631
12:10.2,1.4211E+12,-0.008382568,0.88855225,9.301357,9.343705764
12:10.2,1.4211E+12,0.32033387,1.8314415,9.653874,9.831280434
12:10.2,1.4211E+12,0.2917433,2.0692968,10.315798,10.52534046
12:10.2,1.4211E+12,0.15971786,2.1219873,10.348431,10.56495925
12:10.2,1.4211E+12,0.38829255,2.2237756,10.0417185,10.29233013
12:10.3,1.4211E+12,0.3170407,2.2570066,10.161469,10.41393518
12:10.3,1.4211E+12,0.30461654,1.7778529,10.386452,10.54191336
12:10.3,1.4211E+12,0.4403842,1.8796413,10.460248,10.63690641
12:10.3,1.4211E+12,0.40131545,1.9895128,9.83919,10.0463364
12:10.3,1.4211E+12,0.7283853,2.4114852,9.745335,10.0656525
12:10.4,1.4211E+12,0.78661424,1.971101,9.526789,9.760312995
12:10.4,1.4211E+12,0.73063064,1.8122814,8.979078,9.189234284
12:10.4,1.4211E+12,0.81640226,1.5295193,9.130114,9.293273029
12:10.4,1.4211E+12,0.90157515,1.7751585,9.170529,9.384168988
12:10.4,1.4211E+12,1.2880714,1.8479073,9.31947,9.587826156
12:10.5,1.4211E+12,1.1915222,2.0251386,9.125772,9.423408412
12:10.5,1.4211E+12,0.90501803,1.7461189,8.709489,8.928784211
12:10.5,1.4211E+12,0.9969269,1.3659096,8.171657,8.344791813
12:10.5,1.4211E+12,1.2769945,0.15582596,10.556348,10.63444779
12:10.5,1.4211E+12,0.77149564,1.1720626,10.220896,10.31676554
12:10.6,1.4211E+12,0.9969269,1.3521382,9.237441,9.388953998
12:10.6,1.4211E+12,1.5329622,1.5760726,9.53083,9.781139935
12:10.6,1.4211E+12,2.0739372,1.2265494,9.889784,10.17907002
12:10.6,1.4211E+12,2.2821543,0.40670425,9.98813,10.25360315
12:10.6,1.4211E+12,2.2923331,0.86415297,9.558523,9.867467423
12:10.7,1.4211E+12,1.5164964,1.0880873,8.918754,9.111962918
12:10.7,1.4211E+12,1.9380199,0.5763016,7.6764865,7.938292616
12:10.7,1.4211E+12,3.5417848,0.3689827,6.0854454,7.050747018
12:10.7,1.4211E+12,4.779561,-0.50609756,4.0876994,6.309486863
12:10.7,1.4211E+12,4.663253,-0.6084846,5.5992565,7.31217173
12:10.8,1.4211E+12,4.7527666,0.7590715,7.6707983,9.055723409
12:10.8,1.4211E+12,3.9860609,0.7776329,6.563401,7.71826581
12:10.8,1.4211E+12,4.627627,1.1499088,2.8392956,5.549668585
12:10.8,1.4211E+12,5.0841775,1.9212548,0.94678116,5.516926266
12:10.8,1.4211E+12,5.5678215,0.47151947,1.6028668,5.813101482
12:10.9,1.4211E+12,5.670957,0.38140687,3.798501,6.836214913
12:10.9,1.4211E+12,7.3319035,-1.2123289,6.062992,9.590955233
12:10.9,1.4211E+12,8.027357,-1.6790584,7.1215906,10.86161821
12:10.9,1.4211E+12,7.4461155,-1.2225078,5.6673646,9.437064314
12:10.9,1.4211E+12,7.2437367,-1.8791922,5.1976414,9.11145218
12:11.0,1.4211E+12,8.475675,-2.8297155,6.257288,10.90862089
12:11.0,1.4211E+12,10.340048,-3.0288017,8.143516,13.50581672
12:11.0,1.4211E+12,10.716365,-3.1780412,8.543933,14.06908724
12:11.0,1.4211E+12,9.76644,-2.5173151,7.0530334,12.30713231
12:11.0,1.4211E+12,9.518107,-2.4427702,6.178851,11.60774254
12:11.1,1.4211E+12,10.683284,-2.7095156,6.1584935,12.62541382
12:11.1,1.4211E+12,11.884985,-3.1966026,6.2842317,13.8189256
12:11.1,1.4211E+12,12.089161,-3.1530433,6.2849803,13.98536639
12:11.1,1.4211E+12,10.759625,-1.7751585,5.282964,12.11736054
12:11.1,1.4211E+12,11.952495,-3.6742594,4.7833033,13.38814062
12:11.2,1.4211E+12,13.005555,-5.178481,5.301226,14.96877161
12:11.2,1.4211E+12,12.814403,-4.4259963,4.8629375,14.40300415
12:11.2,1.4211E+12,11.453732,-2.805915,3.719166,12.3650043
12:11.2,1.4211E+12,10.857372,-2.615062,2.7611582,11.50413276
12:11.2,1.4211E+12,9.648486,-2.9816496,-3.2422576,10.60640141
12:11.3,1.4211E+12,9.253008,-2.4586372,-1.9984941,9.780441329
12:11.3,1.4211E+12,7.1653,-3.4262252,-3.4664915,8.665858672
12:11.3,1.4211E+12,5.841752,-2.4754024,-1.6343014,6.551688678
12:11.3,1.4211E+12,6.553522,-3.5509157,1.6368462,7.631311709
12:11.3,1.4211E+12,7.478748,-3.8564305,2.645299,8.820506485
12:11.4,1.4211E+12,6.292315,-2.5396187,0.1445993,6.787031763
12:11.4,1.4211E+12,4.8047085,-2.2040167,-2.6870623,5.929858109
12:11.4,1.4211E+12,3.687881,-6.365363,-7.343429,10.39443418
12:11.4,1.4211E+12,2.6354196,-6.918164,-6.553971,9.887414499
12:11.4,1.4211E+12,6.4051805,-4.1592507,4.964726,9.109017943
12:11.5,1.4211E+12,9.325907,-4.690496,-6.3857207,12.23726779
12:11.5,1.4211E+12,6.3114753,-6.4887066,-7.0211496,11.45576604
12:11.5,1.4211E+12,4.9379315,-10.241253,1.1707155,11.42965464
12:11.5,1.4211E+12,4.9897237,-10.0577345,2.1574636,11.43284807
12:11.5,1.4211E+12,5.3654423,-7.8842545,1.4774277,9.650504272
12:11.6,1.4211E+12,5.2789226,-10.461445,-1.8441651,11.86211618
12:11.6,1.4211E+12,5.503755,-11.351944,-1.3248949,12.68516055
12:11.6,1.4211E+12,5.9112077,-13.262271,0.40236327,14.52556728
12:11.6,1.4211E+12,5.758226,-12.081377,1.7588425,13.49853191
12:11.6,1.4211E+12,4.9994535,-4.687053,0.10657837,6.853784361
12:11.7,1.4211E+12,3.9839654,-7.0355196,-0.28575575,8.090251708
12:11.7,1.4211E+12,3.5227745,-9.505982,-1.475332,10.24452236
12:11.7,1.4211E+12,4.296216,-9.571695,-2.081272,10.6960979
12:11.7,1.4211E+12,5.0163684,-7.349267,-1.3934523,9.006519121
12:11.7,1.4211E+12,3.2280374,-8.176147,-0.66431856,8.81537999
12:11.8,1.4211E+12,1.9847227,-8.976084,-2.0556753,9.419926173
12:11.8,1.4211E+12,1.916315,-10.283016,-1.5423926,10.57315734
12:11.8,1.4211E+12,2.1357586,-9.216634,-1.4115646,9.565580051
12:11.8,1.4211E+12,2.912194,8.59812,0.5216652,9.09289151
12:11.8,1.4211E+12,1.7188755,2.977608,-3.6997063,5.050594925
12:11.9,1.4211E+12,2.3998096,-5.056784,-0.21989273,5.601651841
12:11.9,1.4211E+12,1.0666819,-4.970564,0.3213817,5.093878969
12:11.9,1.4211E+12,0.3079097,-6.051017,1.0154883,6.143356705
12:11.9,1.4211E+12,0.37362304,-6.0882893,0.9395961,6.171685475
12:11.9,1.4211E+12,-0.48843428,-5.2620077,3.6862345,6.443261431
12:12.0,1.4211E+12,-1.2144246,-3.6197727,0.46164,3.845867002
12:12.0,1.4211E+12,-0.9782158,-3.250341,-1.6974701,3.79513208
12:12.0,1.4211E+12,-0.63617706,-2.84678,0.6141728,2.980953849
12:12.0,1.4211E+12,-7.47785,-13.283077,5.5793476,16.23229789
12:12.0,1.4211E+12,-7.418423,-17.294886,2.6421556,19.00334359
12:12.1,1.4211E+12,-2.0213964,-1.5916401,-8.746911,9.117445566
12:12.1,1.4211E+12,-2.805466,-4.1242237,-6.084697,7.867871261
12:12.1,1.4211E+12,-1.4495856,-9.293574,1.6170872,9.543939811
12:12.1,1.4211E+12,-1.8935623,-7.935598,4.3269024,9.234791724
12:12.1,1.4211E+12,-2.6463468,-8.247699,3.0100906,9.169969226
12:12.2,1.4211E+12,-2.7119105,-9.206006,1.8279986,9.769676756
12:12.2,1.4211E+12,-1.9422112,-9.995464,-1.0490185,10.23630425
12:12.2,1.4211E+12,-1.1064991,-10.246942,-1.8395247,10.4693845
12:12.2,1.4211E+12,-0.8653505,-10.216405,-1.2162209,10.32487074
12:12.2,1.4211E+12,-1.1335927,-9.44416,-0.37212616,9.51922625
12:12.3,1.4211E+12,-1.1689192,-9.372459,0.26973906,9.448921577
12:12.3,1.4211E+12,-0.86609894,-9.605675,-0.1445993,9.645725921
12:12.3,1.4211E+12,-0.5300478,-9.595346,-0.84229845,9.646817206
12:12.3,1.4211E+12,-0.2906955,-9.690847,-0.9463321,9.74128143
12:12.3,1.4211E+12,-0.25177643,-9.7796135,-0.57510406,9.799743683
12:12.4,1.4211E+12,-0.32856673,-9.835597,-0.35266662,9.84740058
12:12.4,1.4211E+12,-0.35880387,-9.782757,-0.55295014,9.80493899
12:12.4,1.4211E+12,-0.47211823,-9.706265,-0.27378067,9.721596151
12:12.4,1.4211E+12,-0.48020142,-9.708062,0.012124786,9.719938694
12:12.4,1.4211E+12,-0.4297563,-9.685908,-0.07394623,9.695719277
12:12.5,1.4211E+12,-0.2775229,-9.603879,-0.16136444,9.609242909
12:12.5,1.4211E+12,-0.48109955,-9.663605,0.048948213,9.675697096
12:12.5,1.4211E+12,-0.8503816,-9.677975,0.22498214,9.717868384
12:12.5,1.4211E+12,-0.92747134,-9.67049,0.122295685,9.715633595
12:12.5,1.4211E+12,-0.47870454,-9.539662,-0.18950592,9.553544976
12:12.6,1.4211E+12,-0.13861175,-9.629176,-0.2549199,9.633547001
12:12.6,1.4211E+12,-0.07589218,-9.725426,0.09580078,9.726193926
12:12.6,1.4211E+12,-0.13786331,-9.76195,0.13861175,9.763907379
12:12.7,1.4211E+12,-0.41074586,-9.754017,-0.036673736,9.762730395
12:12.7,1.4211E+12,-0.8045769,-9.637709,0.15088624,9.672411561
12:12.7,1.4211E+12,-0.98959213,-9.586365,0.3065625,9.642181655
12:12.7,1.4211E+12,-0.8168514,-9.477541,0.3385959,9.518701424
12:12.7,1.4211E+12,-0.8955876,-9.849368,0.2839595,9.894077023
12:12.7,1.4211E+12,-1.0737172,-9.749975,0.45475432,9.819454293
12:12.7,1.4211E+12,-1.1304492,-9.740245,0.4236191,9.814771581
12:12.8,1.4211E+12,-0.96010345,-9.756861,0.2856061,9.808144883
12:12.8,1.4211E+12,-0.8955876,-9.778416,0.25716522,9.82270994
12:12.8,1.4211E+12,-0.75083864,-9.8640375,0.05029541,9.892700546
12:12.8,1.4211E+12,-0.66850984,-9.850117,-0.1552272,9.873996445
12:12.8,1.4211E+12,-0.7580237,-9.634266,-0.07319778,9.664317834
12:12.9,1.4211E+12,-1.0243199,-9.366472,0.20597167,9.424566479
12:12.9,1.4211E+12,-1.2434642,-9.299861,-0.23561005,9.385580959
12:12.9,1.4211E+12,-0.48139894,-9.685908,-0.27812165,9.701850874
12:13.0,1.4211E+12,-0.25806335,-9.755363,-0.5692662,9.775365362
12:13.0,1.4211E+12,-0.38679564,-9.623188,-0.6950047,9.65600278
12:13.0,1.4211E+12,-0.57540345,-9.683962,-0.875679,9.740483708
12:13.0,1.4211E+12,-0.67359924,-9.715097,-1.0030642,9.789942975
12:13.0,1.4211E+12,-0.8744815,-9.539513,-0.8680449,9.618759178
12:13.0,1.4211E+12,-1.0054592,-9.429641,-0.8481363,9.520946002
12:13.0,1.4211E+12,-0.9364526,-9.532927,-0.9054671,9.621512944
12:13.1,1.4211E+12,-1.3552817,-9.87751,-0.875679,10.00843674
12:13.1,1.4211E+12,-1.4464421,-9.596395,-0.75996965,9.734502844
12:13.1,1.4211E+12,-0.8626561,-9.3630295,-1.3388159,9.497522044
12:13.1,1.4211E+12,-0.3248245,-9.11275,-1.7429755,9.283624675
12:13.1,1.4211E+12,0.001646576,-8.938811,-1.7226177,9.103282735
12:13.2,1.4211E+12,0.04101471,-9.065598,-1.9672092,9.276672967
12:13.2,1.4211E+12,0.33784744,-9.429641,-2.4748037,9.754841036
12:13.2,1.4211E+12,0.554447,-9.403445,-2.7418482,9.810704404
12:13.3,1.4211E+12,-0.5481601,-8.9811735,-2.35625,9.301283298
12:13.3,1.4211E+12,-0.9818083,-9.106762,-2.4013064,9.469072504
12:13.3,1.4211E+12,-0.9753717,-9.34836,-2.9880862,9.862648923
12:13.3,1.4211E+12,-0.8702902,-9.398655,-3.5604959,10.08807474
12:13.3,1.4211E+12,-0.8418494,-8.795111,-2.7734327,9.260378872
12:13.3,1.4211E+12,-0.6047424,-8.624615,-2.7767258,9.080743551
12:13.3,1.4211E+12,-0.5090913,-8.886869,-3.2235465,9.467146699
12:13.4,1.4211E+12,-0.79828995,-9.101673,-3.032544,9.626735758
12:13.4,1.4211E+12,-0.71506304,-9.032966,-3.4236803,9.686453257
12:13.4,1.4211E+12,-0.3028203,-8.643925,-4.198619,9.614444396
12:13.4,1.4211E+12,-0.07244934,-8.315059,-4.838688,9.62072537
12:13.4,1.4211E+12,-0.11376343,-8.300838,-4.336931,9.366206496
12:13.5,1.4211E+12,-0.2296225,-8.263416,-3.902385,9.14141013
12:13.5,1.4211E+12,0.05613327,-8.263566,-3.8426592,9.113490205
12:13.5,1.4211E+12,0.3195854,-8.463999,-4.746031,9.70907947
12:13.5,1.4211E+12,0.50235534,-8.474477,-5.327721,10.02266094
12:13.5,1.4211E+12,0.21824616,-8.005503,-5.309758,9.608810524
12:13.6,1.4211E+12,0.29907808,-7.833959,-5.1624646,9.386767391
12:13.6,1.4211E+12,0.17663269,-7.6776843,-4.9572415,9.140693552
12:13.6,1.4211E+12,0.102387086,-7.768545,-5.018015,9.24885123
12:13.6,1.4211E+12,-0.19459534,-7.869585,-5.3106565,9.495857406
12:13.6,1.4211E+12,0.30895752,-8.029752,-5.992788,10.02426456
12:13.7,1.4211E+12,0.42376876,-8.093968,-6.3785357,10.31395247
12:13.7,1.4211E+12,0.22468276,-7.1126094,-5.885162,9.234436993
12:13.7,1.4211E+12,-0.06990463,-6.285579,-5.6273975,8.436882875
12:13.7,1.4211E+12,0.3516188,-6.1734624,-5.87154,8.527030887
12:13.7,1.4211E+12,0.8247849,-6.5373554,-6.207591,9.052705219
12:13.8,1.4211E+12,0.65458876,-7.209458,-6.2518992,9.565093554
12:13.8,1.4211E+12,0.10044113,-7.3359447,-6.0596986,9.51557251
12:13.8,1.4211E+12,-0.30461654,-7.37187,-5.9308167,9.466353324
12:13.8,1.4211E+12,-0.030536499,-7.4202194,-6.070776,9.58722638
12:13.8,1.4211E+12,0.064066775,-7.3287597,-6.494694,9.792643844
12:13.9,1.4211E+12,-0.15702347,-7.110364,-6.854696,9.877691524
12:13.9,1.4211E+12,-0.1552272,-6.8931656,-7.055428,9.865033793
12:13.9,1.4211E+12,-0.13187577,-7.079378,-6.7273107,9.76686712
12:14.0,1.4211E+12,-0.1565744,-7.187304,-7.0337234,10.05759013
12:14.0,1.4211E+12,-0.13142669,-6.5954347,-7.1527257,9.730288629
12:14.0,1.4211E+12,-0.21420456,-5.723498,-7.8212357,9.694124036
12:14.0,1.4211E+12,-0.20507355,-4.5780797,-8.171806,9.369059836
12:14.0,1.4211E+12,-0.17004639,-3.830235,-7.682624,8.58617071
12:14.0,1.4211E+12,-0.1978885,-3.2102244,-7.883207,8.514085574
12:14.0,1.4211E+12,0.16241226,-2.9600945,-8.283175,8.797699999
12:14.1,1.4211E+12,1.1614348,-2.9701235,-8.566686,9.141043344
12:14.1,1.4211E+12,1.3491445,-3.4793646,-8.4255295,9.214972396
12:14.1,1.4211E+12,1.4156063,-3.6862345,-8.385712,9.268895928
12:14.1,1.4211E+12,1.0289602,-3.1225066,-8.5083065,9.121408118
12:14.1,1.4211E+12,0.4671785,-2.2763164,-9.201066,9.489967737
12:14.2,1.4211E+12,0.8375084,-2.0683987,-9.191187,9.458203422
12:14.2,1.4211E+12,1.4810202,-2.6825716,-10.380164,10.82300401
12:14.2,1.4211E+12,0.60324556,-2.5848248,-11.846664,12.14037365
12:14.3,1.4211E+12,-0.56342834,-2.0604653,-11.323652,11.52337031
12:14.3,1.4211E+12,-0.57225996,-1.9002984,-11.094778,11.27087904
12:14.3,1.4211E+12,-0.023650818,-1.9332298,-10.896141,11.06633749
12:14.3,1.4211E+12,0.1978885,-1.7793498,-10.77669,10.92438982
12:14.3,1.4211E+12,0.26629624,-1.7363892,-10.479109,10.6253323
12:14.3,1.4211E+12,0.6209088,-2.137555,-9.88679,10.13426295
12:14.3,1.4211E+12,0.7858658,-2.4054978,-9.730665,10.05434464
12:14.4,1.4211E+12,0.8589139,-1.9094293,-9.321116,9.553368873
12:14.4,1.4211E+12,1.257535,-1.7404307,-8.916807,9.17169234
12:14.4,1.4211E+12,1.5479311,-1.7348922,-8.575367,8.884979506
12:14.4,1.4211E+12,1.8922151,-2.06301,-8.548424,8.995112069
12:14.4,1.4211E+12,1.950444,-1.8019528,-8.926388,9.312983862
12:14.5,1.4211E+12,1.973047,-1.581611,-9.341475,9.677683762
12:14.5,1.4211E+12,1.9276913,-1.7362394,-9.6532755,9.995811567
12:14.5,1.4211E+12,1.6931291,-1.8585352,-9.677675,9.998911573
12:14.5,1.4211E+12,1.9366727,-2.109563,-9.500743,9.922956956
12:14.6,1.4211E+12,2.0386107,-2.2448816,-9.178613,9.666559036
12:14.6,1.4211E+12,1.8459613,-2.237996,-8.672964,9.145299545
12:14.6,1.4211E+12,1.7968634,-1.6748672,-8.468789,8.81783904
12:14.6,1.4211E+12,1.7392333,-1.7315991,-8.591384,8.935057188
12:14.6,1.4211E+12,1.8203645,-1.812431,-9.066945,9.423806273
12:14.6,1.4211E+12,1.7055533,-1.7777033,-10.356962,10.64592894
12:14.7,1.4211E+12,1.7025595,-1.6808547,-10.872641,11.13275813
12:14.7,1.4211E+12,1.771566,-1.6131953,-9.823771,10.11174178
12:14.7,1.4211E+12,1.6437318,-1.3585749,-8.419841,8.685695278
12:14.7,1.4211E+12,1.7651294,-1.301244,-8.461754,8.741292725
12:14.7,1.4211E+12,1.6877403,-1.5368541,-8.927734,9.214923886
12:14.8,1.4211E+12,1.8359321,-1.8178198,-9.607471,9.948799652
12:14.8,1.4211E+12,1.787433,-1.8968555,-9.853709,10.1925737
12:14.8,1.4211E+12,1.7434245,-1.6158898,-9.427995,9.723050887
12:14.8,1.4211E+12,1.7429755,-1.5913408,-9.012609,9.316514913
12:14.8,1.4211E+12,1.8586849,-1.5971787,-8.675809,9.015284308
12:14.9,1.4211E+12,1.9016455,-1.6610957,-8.901239,9.252434829
12:14.9,1.4211E+12,1.9731967,-1.6587007,-9.331894,9.681375876
12:14.9,1.4211E+12,1.8838326,-1.6977695,-9.504934,9.837429384
12:14.9,1.4211E+12,1.926943,-1.6375946,-9.412427,9.746209901
12:14.9,1.4211E+12,1.9107765,-1.5386504,-9.235944,9.55621125
12:15.0,1.4211E+12,1.8320403,-1.6236736,-9.06934,9.393913756
12:15.0,1.4211E+12,2.043251,-1.68789,-9.139245,9.515757798
12:15.0,1.4211E+12,2.1838088,-1.6780106,-9.160051,9.565107149
12:15.0,1.4211E+12,2.2397923,-1.5858023,-9.110504,9.51486845
12:15.0,1.4211E+12,2.2255719,-1.497486,-9.268725,9.649087922
12:15.1,1.4211E+12,2.1598585,-1.5617024,-9.135952,9.516802093
12:15.1,1.4211E+12,2.1550684,-1.6621436,-9.022338,9.42388583
12:15.1,1.4211E+12,2.214944,-1.5820601,-9.063652,9.46354472
12:15.1,1.4211E+12,2.0366647,-1.6826509,-9.206455,9.578002444
12:15.1,1.4211E+12,2.0275338,-1.7125887,-9.264085,9.636759012
12:15.2,1.4211E+12,1.9130218,-1.7812958,-9.131162,9.497935913
12:15.2,1.4211E+12,1.8471588,-1.8634748,-9.024433,9.39813412
12:15.2,1.4211E+12,1.7944684,-1.8682649,-9.215436,9.572606293
12:15.3,1.4211E+12,1.6110997,-1.7886305,-9.411978,9.714945763
12:15.3,1.4211E+12,1.3567786,-1.719175,-9.323362,9.577133696
12:15.3,1.4211E+12,1.2205619,-1.7049545,-9.311836,9.54499507
12:15.3,1.4211E+12,1.2771442,-1.900897,-9.089848,9.373891581
12:15.3,1.4211E+12,1.2293935,-1.9070343,-9.144334,9.421625789
12:15.3,1.4211E+12,1.2268487,-1.9399658,-9.367221,9.644348309
12:15.3,1.4211E+12,1.4130615,-1.9806812,-9.288185,9.601573903
12:15.4,1.4211E+12,1.4519806,-2.0184028,-9.533974,9.852860385
12:15.4,1.4211E+12,1.4497353,-2.1725821,-9.393267,9.749631293
12:15.4,1.4211E+12,1.3952485,-2.1727319,-9.30016,9.651966552
12:15.4,1.4211E+12,1.2436138,-2.07259,-9.291179,9.600427688
12:15.4,1.4211E+12,1.1383827,-2.187551,-9.192983,9.517995114
12:15.5,1.4211E+12,1.2034973,-2.133214,-9.302106,9.619157123
12:15.5,1.4211E+12,1.0912308,-2.1046233,-9.257648,9.556373286
12:15.5,1.4211E+12,0.89798266,-2.1246817,-9.270522,9.553178703
12:15.5,1.4211E+12,0.780477,-1.936972,-9.224567,9.457993509
12:15.6,1.4211E+12,0.49457154,-2.1076171,-9.300759,9.549385783
12:15.6,1.4211E+12,0.46523255,-2.1686902,-9.422156,9.679704654
12:15.6,1.4211E+12,0.66791105,-2.17842,-9.471254,9.741471716
12:15.6,1.4211E+12,0.65369064,-2.0757334,-9.392219,9.641045501
12:15.6,1.4211E+12,0.8349637,-2.0553758,-9.266181,9.528055646
12:15.6,1.4211E+12,0.9446855,-2.0242405,-9.2360935,9.502389354
12:15.7,1.4211E+12,1.0353969,-1.9435583,-9.222771,9.482034092
12:15.7,1.4211E+12,0.9400452,-2.013912,-9.339977,9.600765432
12:15.7,1.4211E+12,1.0611434,-2.1269271,-9.323362,9.621586313
12:15.7,1.4211E+12,1.0606942,-2.1619542,-9.299262,9.606008114
12:15.7,1.4211E+12,1.0428814,-2.143243,-9.223819,9.526800571
12:15.8,1.4211E+12,1.0060579,-2.2189856,-9.175769,9.493723523
12:15.8,1.4211E+12,1.0231224,-2.1457877,-9.190738,9.49320016
12:15.8,1.4211E+12,0.8866063,-2.1023781,-9.404194,9.677031011
12:15.8,1.4211E+12,0.9548643,-2.2243743,-9.46871,9.773232624
12:15.8,1.4211E+12,1.0397378,-2.1989274,-9.396709,9.70641419
12:15.9,1.4211E+12,0.96010345,-2.160158,-9.302855,9.598499485
12:15.9,1.4211E+12,0.9168434,-2.144291,-9.353898,9.640227876
12:15.9,1.4211E+12,0.678539,-2.089954,-9.145082,9.405362709
12:15.9,1.4211E+12,0.57225996,-2.233206,-9.3613825,9.641066995
12:15.9,1.4211E+12,0.47211823,-2.3580465,-9.292826,9.598952755
12:16.0,1.4211E+12,0.6141728,-2.3037095,-9.363179,9.661956669
12:16.0,1.4211E+12,0.54890853,-2.2361999,-9.277557,9.559024765
12:16.0,1.4211E+12,0.5201683,-2.2071602,-9.279653,9.552700718
12:16.0,1.4211E+12,0.6234535,-2.2291644,-9.373957,9.655513349
12:16.0,1.4211E+12,0.75203615,-2.2194347,-9.188493,9.482607889
12:16.1,1.4211E+12,0.66686326,-2.3845413,-9.235195,9.561358194
12:16.1,1.4211E+12,0.626597,-2.1854553,-9.243578,9.519063657
12:16.1,1.4211E+12,0.7110214,-2.1932392,-9.305549,9.586922958
12:16.1,1.4211E+12,0.646805,-2.1483326,-9.279353,9.54673147
12:16.1,1.4211E+12,0.62734544,-2.076931,-9.224867,9.476569836
12:16.2,1.4211E+12,0.5547464,-2.038461,-9.323811,9.560152634
12:16.2,1.4211E+12,0.64725405,-2.1574636,-9.317524,9.585918865
12:16.2,1.4211E+12,0.7322772,-2.1025279,-9.3928175,9.653075886
12:16.2,1.4211E+12,0.6692583,-2.2583537,-9.391919,9.682779075
12:16.2,1.4211E+12,0.5629793,-2.209256,-9.237441,9.514624217
12:16.3,1.4211E+12,0.5391788,-2.194736,-9.299711,9.570381631
12:16.3,1.4211E+12,0.61537033,-2.202819,-9.315578,9.592240909
12:16.3,1.4211E+12,0.8158035,-2.1811144,-9.491313,9.77281013
12:16.3,1.4211E+12,0.75847274,-2.0805235,-9.4788885,9.734124826
12:16.3,1.4211E+12,0.8038284,-2.1074674,-9.269025,9.539516937
12:16.4,1.4211E+12,0.7322772,-2.19279,-9.220376,9.505782002
12:16.4,1.4211E+12,0.61087966,-2.0757334,-9.21394,9.464593675
12:16.4,1.4211E+12,0.55699176,-2.1570144,-9.265732,9.529781762
12:16.4,1.4211E+12,0.55833894,-2.14953,-9.526938,9.782370329
12:16.4,1.4211E+12,0.45265868,-2.0911515,-9.419762,9.659696197
12:16.5,1.4211E+12,0.50669634,-2.141297,-9.460177,9.712715526
12:16.5,1.4211E+12,0.5213658,-2.1528232,-9.249715,9.511240593
12:16.6,1.4211E+12,0.55324954,-2.13037,-9.110206,9.372321738
12:16.6,1.4211E+12,0.49726593,-2.1992266,-9.185498,9.458183999
12:16.6,1.4211E+12,0.54082537,-2.2246737,-9.213041,9.493249687
12:16.6,1.4211E+12,0.5519023,-2.2767653,-9.360934,9.649629098
12:16.6,1.4211E+12,0.5986052,-2.1541703,-9.415121,9.676945867
12:16.6,1.4211E+12,0.51912045,-2.1948857,-9.229208,9.500804681
12:16.6,1.4211E+12,0.6367758,-2.171684,-9.276659,9.548722271
12:16.6,1.4211E+12,0.51403105,-2.2838008,-9.220675,9.513191971
12:16.7,1.4211E+12,0.6487509,-2.2161415,-9.35345,9.634271523
12:16.7,1.4211E+12,0.47136977,-2.1165986,-9.379795,9.627187197
12:16.7,1.4211E+12,0.5542973,-2.0924985,-9.34836,9.595708945
12:16.7,1.4211E+12,0.52885026,-2.2540128,-9.234147,9.519964659
12:16.7,1.4211E+12,0.69320846,-2.1891975,-9.315578,9.594431569
12:16.8,1.4211E+12,0.62959075,-2.1941373,-9.216933,9.495392405
12:16.8,1.4211E+12,0.592917,-2.1951852,-9.247919,9.523360461
12:16.8,1.4211E+12,0.6062393,-2.1383033,-9.29058,9.552734887
12:16.9,1.4211E+12,0.5161267,-2.2329066,-9.298513,9.576774126
12:16.9,1.4211E+12,0.497715,-2.0845652,-9.294023,9.537924083
12:16.9,1.4211E+12,0.4899312,-2.0953426,-9.210048,9.458090577
12:16.9,1.4211E+12,0.49067962,-2.1083655,-9.307795,9.556203186
12:16.9,1.4211E+12,0.38155654,-2.1528232,-9.338631,9.591155409
12:16.9,1.4211E+12,0.48798522,-2.1945863,-9.39162,9.656959399
12:16.9,1.4211E+12,0.4472699,-2.0938458,-9.272617,9.516599531
12:17.0,1.4211E+12,0.39877075,-2.1957839,-9.32396,9.58732054
12:17.0,1.4211E+12,0.45071274,-2.2056632,-9.350156,9.617354592
12:17.0,1.4211E+12,0.2996768,-2.1278253,-9.364975,9.608340306
12:17.0,1.4211E+12,0.2773732,-2.1395009,-9.327105,9.573363446
12:17.0,1.4211E+12,0.28605515,-2.1845572,-9.242829,9.501789602
12:17.1,1.4211E+12,0.29054582,-2.1369562,-9.2890835,9.536145497
12:17.1,1.4211E+12,0.2811154,-2.1338127,-9.220077,9.467946049
12:17.1,1.4211E+12,0.37242553,-2.0576212,-9.291179,9.523576691
12:17.1,1.4211E+12,0.37018022,-2.1261785,-9.262738,9.510835067
12:17.1,1.4211E+12,0.4631369,-2.0832179,-9.284443,9.526551025
12:17.2,1.4211E+12,0.54786074,-2.0857627,-9.308244,9.55478748
12:17.2,1.4211E+12,0.57225996,-2.0294797,-9.352402,9.587162901
12:17.2,1.4211E+12,0.5122348,-2.1127067,-9.443861,9.69084231
12:17.2,1.4211E+12,0.7041357,-2.0754342,-9.442365,9.693373561
12:17.2,1.4211E+12,0.68916684,-2.1770728,-9.342522,9.617552403
12:17.3,1.4211E+12,0.7164102,-2.1258793,-9.360485,9.625553792
12:17.3,1.4211E+12,0.7164102,-2.2441332,-9.402397,9.6930102
12:17.3,1.4211E+12,0.67704207,-2.1936882,-9.342073,9.62003024
12:17.3,1.4211E+12,0.7089258,-2.1071682,-9.265732,9.528720959
12:17.3,1.4211E+12,0.80248123,-2.1146526,-9.386531,9.655190105
12:17.4,1.4211E+12,0.8002359,-2.052382,-9.414073,9.668372139
12:17.4,1.4211E+12,0.79769117,-2.1796174,-9.229058,9.516436034
12:17.4,1.4211E+12,0.8346643,-2.158212,-9.305249,9.588649669
12:17.4,1.4211E+12,0.7538324,-2.0865111,-9.272018,9.533735346
12:17.4,1.4211E+12,0.6834787,-2.1754262,-9.321116,9.595979667
12:17.5,1.4211E+12,0.5980064,-2.0978875,-9.3856325,9.635810347
12:17.5,1.4211E+12,0.7104227,-2.1157005,-9.326805,9.590108473
12:17.6,1.4211E+12,0.7301816,-2.0667522,-9.275311,9.53079346
12:17.6,1.4211E+12,0.67584455,-2.1215382,-9.310339,9.572883708
12:17.6,1.4211E+12,0.574655,-2.0664527,-9.358988,9.601620255
12:17.6,1.4211E+12,0.5559439,-2.0944445,-9.3679695,9.615332752
12:17.6,1.4211E+12,0.56432647,-2.1576133,-9.3083935,9.57183102
12:17.6,1.4211E+12,0.4936734,-2.1526735,-9.214838,9.475808989
12:17.6,1.4211E+12,0.38844222,-2.0624113,-9.281599,9.51590814
12:17.6,1.4211E+12,0.47675857,-2.1369562,-9.2537565,9.509252857
12:17.7,1.4211E+12,0.5641768,-2.192341,-9.333541,9.604147131
12:17.7,1.4211E+12,0.46643007,-2.1436923,-9.329799,9.584264347
12:17.7,1.4211E+12,0.50864226,-2.2508693,-9.205856,9.490675121
12:17.7,1.4211E+12,0.54696256,-2.2499712,-9.289982,9.574199915
12:17.7,1.4211E+12,0.59890455,-2.2385948,-9.328152,9.611681074
12:17.8,1.4211E+12,0.47421387,-2.11585,-9.331744,9.580352086
12:17.8,1.4211E+12,0.40386018,-2.082769,-9.336235,9.574252646
12:17.8,1.4211E+12,0.49427214,-2.1318667,-9.296119,9.550235025
12:17.9,1.4211E+12,0.53049684,-2.1556673,-9.258846,9.5212687
12:17.9,1.4211E+12,0.60040146,-2.2646406,-9.235944,9.52847
12:17.9,1.4211E+12,0.531844,-2.1481829,-9.367371,9.625236998
12:17.9,1.4211E+12,0.54606444,-2.1897962,-9.288784,9.559022019
12:17.9,1.4211E+12,0.619861,-2.109563,-9.234746,9.492892994
12:17.9,1.4211E+12,0.6394702,-2.0526814,-9.278904,9.524730049
12:17.9,1.4211E+12,0.6399193,-2.0832179,-9.304651,9.55645456
12:18.0,1.4211E+12,0.6306386,-2.237547,-9.278605,9.565397659
12:18.0,1.4211E+12,0.685724,-2.0930974,-9.24268,9.501495025
12:18.0,1.4211E+12,0.5987549,-2.2282662,-9.220975,9.505264733
12:18.0,1.4211E+12,0.667462,-2.1992266,-9.401799,9.678632527
12:18.0,1.4211E+12,0.64919996,-2.127376,-9.270223,9.533321756
12:18.1,1.4211E+12,0.67359924,-2.113904,-9.351204,9.610793011
12:18.1,1.4211E+12,0.54322034,-2.0948937,-9.414672,9.660213084
12:18.1,1.4211E+12,0.6442602,-2.1402493,-9.258697,9.524663165
12:18.2,1.4211E+12,0.61252624,-2.1574636,-9.387728,9.651905231
12:18.2,1.4211E+12,0.57794815,-2.1528232,-9.270073,9.534302556
12:18.2,1.4211E+12,0.5680687,-2.069746,-9.270073,9.515293163
12:18.2,1.4211E+12,0.7402107,-2.1534219,-9.398506,9.670421542
12:18.2,1.4211E+12,0.5255571,-2.0887563,-9.245673,9.493238771
12:18.2,1.4211E+12,0.4674779,-2.1803658,-9.419013,9.679376865
12:18.2,1.4211E+12,0.47765672,-2.0826192,-9.395362,9.635262622
12:18.3,1.4211E+12,0.506846,-2.1960833,-9.362281,9.629744558
12:18.3,1.4211E+12,0.62450135,-2.2357507,-9.391769,9.674394455
12:18.3,1.4211E+12,0.5933661,-2.1251307,-9.323811,9.581321171
12:18.3,1.4211E+12,0.63018954,-2.1426444,-9.180559,9.448318762
12:18.3,1.4211E+12,0.51941985,-2.2544618,-9.358389,9.640116164
12:18.4,1.4211E+12,0.58438474,-2.1859045,-9.318123,9.58890506
12:18.4,1.4211E+12,0.6117778,-2.0666025,-9.363778,9.608613657
12:18.4,1.4211E+12,0.5828879,-2.09669,-9.298064,9.549338271
12:18.4,1.4211E+12,0.56687117,-2.1547692,-9.315429,9.578183057
12:18.4,1.4211E+12,0.5800438,-2.0419037,-9.279353,9.519044786
12:18.5,1.4211E+12,0.49981064,-2.1679418,-9.392967,9.65285509
12:18.5,1.4211E+12,0.62959075,-2.0655546,-9.263187,9.511547388
12:18.5,1.4211E+12,0.5578899,-2.252965,-9.28624,9.571903978
12:18.5,1.4211E+12,0.49546966,-2.3126907,-9.28624,9.582707436
12:18.5,1.4211E+12,0.5842351,-2.3465204,-9.431288,9.736358764
12:18.6,1.4211E+12,0.5730084,-2.2658381,-9.396709,9.683000617
12:18.6,1.4211E+12,0.67868865,-2.1294718,-9.246122,9.51241507
12:18.6,1.4211E+12,0.63527894,-2.0618124,-9.31947,9.56593805
12:18.6,1.4211E+12,0.6774911,-2.1110601,-9.421258,9.678619284
12:18.6,1.4211E+12,0.7240443,-2.1809647,-9.368717,9.646434854
12:18.7,1.4211E+12,0.60773623,-2.0450473,-9.363329,9.603306292
12:18.7,1.4211E+12,0.5783972,-2.1094134,-9.261091,9.515880134
12:18.7,1.4211E+12,0.6456075,-2.2002745,-9.282348,9.561380722
12:18.7,1.4211E+12,0.59261763,-2.1785696,-9.334439,9.60359894
12:18.7,1.4211E+12,0.59501266,-2.0282822,-9.408834,9.643346203
12:18.8,1.4211E+12,0.5548961,-2.1246817,-9.3012085,9.556916949
12:18.8,1.4211E+12,0.4697232,-2.3002665,-9.316476,9.607735993
12:18.8,1.4211E+12,0.49142808,-2.068249,-9.364227,9.602494613
12:18.8,1.4211E+12,0.4843927,-2.0835173,-9.282946,9.526214729
12:18.8,1.4211E+12,0.37062928,-2.176923,-9.334439,9.592085866
12:18.9,1.4211E+12,0.51043856,-2.069746,-9.368717,9.608186835
12:18.9,1.4211E+12,0.51822233,-2.0556753,-9.378747,9.61536534
12:18.9,1.4211E+12,0.45295808,-2.0525317,-9.30974,9.544072311
12:18.9,1.4211E+12,0.49082932,-2.1113594,-9.432186,9.678062031
12:18.9,1.4211E+12,0.5616321,-2.1790187,-9.291328,9.559933531
12:19.0,1.4211E+12,0.60519147,-2.1131556,-9.234147,9.492162774
12:19.0,1.4211E+12,0.55414766,-2.0902534,-9.154663,9.406598405
12:19.0,1.4211E+12,0.6316864,-2.2589524,-9.242081,9.535090711
12:19.0,1.4211E+12,0.55010605,-2.119293,-9.245523,9.501248077
12:19.0,1.4211E+12,0.57914567,-2.0667522,-9.382938,9.625299989
12:19.1,1.4211E+12,0.60998154,-2.0592678,-9.407337,9.649386031
12:19.1,1.4211E+12,0.68677187,-2.0767813,-9.344169,9.596779172
12:19.1,1.4211E+12,0.60354495,-2.143243,-9.394315,9.654579814
12:19.1,1.4211E+12,0.63632673,-2.194287,-9.2537565,9.531621924
12:19.1,1.4211E+12,0.5990543,-2.1868026,-9.267229,9.540571524
12:19.2,1.4211E+12,0.54726195,-2.1541703,-9.265133,9.527992172
12:19.2,1.4211E+12,0.6012996,-2.1739292,-9.389075,9.656203122
12:19.2,1.4211E+12,0.705932,-2.1634512,-9.352701,9.625584506
12:19.2,1.4211E+12,0.542921,-2.1833596,-9.386381,9.652252102
12:19.2,1.4211E+12,0.6126759,-2.1818628,-9.379645,9.649540785
12:19.3,1.4211E+12,0.5736072,-2.0309765,-9.270971,9.508143565
12:19.3,1.4211E+12,0.5980064,-2.1450393,-9.355994,9.617350414
12:19.3,1.4211E+12,0.68243086,-2.1068687,-9.437574,9.693936796
12:19.3,1.4211E+12,0.5604346,-2.1318667,-9.323063,9.580106798
12:19.3,1.4211E+12,0.5204677,-2.2317092,-9.264085,9.543305689
12:19.4,1.4211E+12,0.5641768,-2.086062,-9.361233,9.607425951
12:19.4,1.4211E+12,0.63617706,-2.1980293,-9.399254,9.673780534
12:19.4,1.4211E+12,0.46687913,-2.192341,-9.366023,9.630509956
12:19.4,1.4211E+12,0.65878004,-2.2016218,-9.313333,9.592669142
12:19.5,1.4211E+12,0.58977354,-2.2097049,-9.344169,9.619985596
12:19.5,1.4211E+12,0.6210585,-2.2475762,-9.297466,9.585415299
12:19.5,1.4211E+12,0.51807266,-2.1097128,-9.388926,9.636971454
12:19.5,1.4211E+12,0.4538562,-2.2974224,-9.267229,9.558539034
12:19.5,1.4211E+12,0.5269043,-2.1911435,-9.346264,9.614124439
12:19.5,1.4211E+12,0.5110373,-2.2421873,-9.270971,9.551935212
12:19.6,1.4211E+12,0.5571414,-2.1718338,-9.294472,9.561091902
12:19.6,1.4211E+12,0.48349458,-2.2314098,-9.367071,9.641316084
12:19.6,1.4211E+12,0.5701643,-2.329905,-9.347611,9.650459888
12:19.6,1.4211E+12,0.6264473,-2.0664527,-9.397159,9.642056848
12:19.6,1.4211E+12,0.5548961,-2.1752765,-9.379346,9.644266116
12:19.7,1.4211E+12,0.5402266,-2.3113434,-9.362131,9.658346129
12:19.7,1.4211E+12,0.54157376,-2.1306694,-9.367371,9.621886181
12:19.7,1.4211E+12,0.5590874,-2.070195,-9.288634,9.532943283
12:19.7,1.4211E+12,0.5098398,-2.0820205,-9.340726,9.583522744
12:19.8,1.4211E+12,0.5533992,-2.2191353,-9.352102,9.627700866
12:19.8,1.4211E+12,0.5536986,-2.2311103,-9.408385,9.685150676
12:19.8,1.4211E+12,0.54890853,-2.3526576,-9.229358,9.540301224
12:19.8,1.4211E+12,0.5686675,-2.0996838,-9.271271,9.523052071
12:19.8,1.4211E+12,0.5771997,-2.2353017,-9.314081,9.595928202
12:19.8,1.4211E+12,0.712668,-2.1745281,-9.389524,9.664348353
12:19.9,1.4211E+12,0.7161108,-2.085613,-9.432784,9.68710536
12:19.9,1.4211E+12,0.581391,-2.227967,-9.309291,9.589825409
12:19.9,1.4211E+12,0.49202684,-2.26015,-9.289533,9.573180861
12:19.9,1.4211E+12,0.5510042,-2.201472,-9.323063,9.595289902
12:19.9,1.4211E+12,0.619861,-2.1609063,-9.320667,9.587939144
12:20.0,1.4211E+12,0.6595285,-2.2269192,-9.404194,9.686744126
12:20.0,1.4211E+12,0.61252624,-2.1912932,-9.309141,9.583165471
12:20.0,1.4211E+12,0.43828857,-2.3233187,-9.270223,9.566971366
12:20.0,1.4211E+12,0.5860313,-2.1414468,-9.282198,9.544025712
12:20.0,1.4211E+12,0.67449737,-2.109563,-9.297466,9.557618782
12:20.1,1.4211E+12,0.6743477,-2.203418,-9.27621,9.558130971
12:20.1,1.4211E+12,0.6402187,-2.181713,-9.318422,9.591805887
12:20.1,1.4211E+12,0.5803432,-2.176025,-9.425599,9.690913246
12:20.1,1.4211E+12,0.515977,-2.2611978,-9.275311,9.560891271
12:20.1,1.4211E+12,0.48379394,-2.1137545,-9.305848,9.555146344
12:20.2,1.4211E+12,0.6316864,-2.1213884,-9.479937,9.73491253
12:20.2,1.4211E+12,0.59890455,-2.1481829,-9.398954,9.659902315
12:20.2,1.4211E+12,0.65099627,-2.1165986,-9.329799,9.589000738
12:20.2,1.4211E+12,0.5363347,-2.2733226,-9.453142,9.737430063
12:20.2,1.4211E+12,0.6274951,-2.1971312,-9.276958,9.554218196
12:20.3,1.4211E+12,0.58483386,-2.2290146,-9.267529,9.549745049
12:20.3,1.4211E+12,0.5993536,-2.1748273,-9.255104,9.526072043
12:20.3,1.4211E+12,0.44233018,-2.2122495,-9.297167,9.566975387
12:20.3,1.4211E+12,0.5965096,-2.1408482,-9.285341,9.547597195
12:20.3,1.4211E+12,0.5854326,-2.0598664,-9.302256,9.54556167
12:20.4,1.4211E+12,0.6601273,-2.151027,-9.259295,9.528758004
12:20.4,1.4211E+12,0.58273816,-2.15911,-9.418264,9.680136183
12:20.4,1.4211E+12,0.52121615,-2.169738,-9.396859,9.658177278
12:20.5,1.4211E+12,0.597258,-1.9245479,-9.226364,9.443854848
12:20.5,1.4211E+12,0.59635985,-2.0636086,-9.261091,9.506941255
12:20.5,1.4211E+12,0.506846,-2.2064118,-9.377998,9.64738267
12:20.5,1.4211E+12,0.64126647,-2.0597167,-9.384584,9.629333955
12:20.5,1.4211E+12,0.5866301,-2.065854,-9.233399,9.479849404
12:20.5,1.4211E+12,0.5650749,-2.1444407,-9.297317,9.558139932
12:20.5,1.4211E+12,0.5680687,-2.1785696,-9.372459,9.639079586
12:20.6,1.4211E+12,0.57390654,-2.1978796,-9.280102,9.554074345
12:20.6,1.4211E+12,0.6453081,-2.0926483,-9.234746,9.490844701
12:20.6,1.4211E+12,0.6527925,-2.292782,-9.231453,9.534291365
12:20.6,1.4211E+12,0.6078859,-2.1441412,-9.414672,9.674859979
12:20.6,1.4211E+12,0.6575825,-2.1050725,-9.34342,9.600168867
12:20.7,1.4211E+12,0.5867798,-2.1439915,-9.35315,9.613658253
12:20.7,1.4211E+12,0.5936655,-2.160607,-9.277707,9.544449094
12:20.7,1.4211E+12,0.6860234,-1.9990928,-9.363479,9.599048865
12:20.7,1.4211E+12,0.6592291,-2.224075,-9.316177,9.600637818
12:20.8,1.4211E+12,0.60983187,-2.1871018,-9.286388,9.559932598
12:20.8,1.4211E+12,0.633782,-2.1396506,-9.304651,9.568506391
12:20.8,1.4211E+12,0.59097105,-2.140998,-9.370963,9.630579773
12:20.8,1.4211E+12,0.63812304,-2.090403,-9.277557,9.531529237
12:20.8,1.4211E+12,0.6038443,-2.0791764,-9.39641,9.642620149
12:20.8,1.4211E+12,0.62569886,-2.097588,-9.425,9.675846189
12:20.9,1.4211E+12,0.6354286,-2.0851638,-9.391769,9.641421188
12:20.9,1.4211E+12,0.64575714,-2.186054,-9.380842,9.653809145
12:20.9,1.4211E+12,0.6527925,-2.160158,-9.411678,9.678434967
12:20.9,1.4211E+12,0.65638506,-2.262994,-9.368568,9.660333822
12:20.9,1.4211E+12,0.6095325,-2.1761746,-9.24717,9.519318188
12:21.0,1.4211E+12,0.5954617,-2.1691391,-9.374855,9.640935916
12:21.0,1.4211E+12,0.70623136,-2.2653892,-9.176667,9.478500313
12:21.0,1.4211E+12,0.5840854,-2.1146526,-9.342373,9.596501688
12:21.0,1.4211E+12,0.49292496,-2.100881,-9.3944645,9.639120252
12:21.0,1.4211E+12,0.7113208,-2.0401075,-9.251362,9.500300771
12:21.1,1.4211E+12,0.6288423,-2.1392014,-9.34327,9.605639987
12:21.1,1.4211E+12,0.51208514,-2.1706362,-9.263038,9.527736651
12:21.1,1.4211E+12,0.7274872,-2.2324576,-9.295071,9.587045919
12:21.1,1.4211E+12,0.72898406,-2.1709356,-9.2890835,9.567207085
12:21.1,1.4211E+12,0.74230635,-2.0905526,-9.267229,9.529058832
12:21.2,1.4211E+12,0.63018954,-2.166894,-9.334589,9.603495211
12:21.2,1.4211E+12,0.78496766,-2.184108,-9.224567,9.512052266
12:21.2,1.4211E+12,0.6677614,-2.2420378,-9.281,9.571290393
12:21.2,1.4211E+12,0.7095245,-2.2227278,-9.155112,9.447752094
12:21.2,1.4211E+12,0.58707917,-2.2480252,-9.273366,9.559999802
12:21.3,1.4211E+12,0.76101744,-2.2495222,-9.3541975,9.65093304
12:21.3,1.4211E+12,0.7234456,-2.0660038,-9.490115,9.739303258
12:21.3,1.4211E+12,0.67644334,-1.9835253,-9.502689,9.731035219
12:21.3,1.4211E+12,0.7595206,-2.0085232,-9.34821,9.591666549
12:21.4,1.4211E+12,0.64381117,-1.9335293,-9.312883,9.533248038
12:21.4,1.4211E+12,0.8018825,-1.9981947,-9.253457,9.500645455
12:21.4,1.4211E+12,0.7336244,-2.0622616,-9.30046,9.554563511
12:21.4,1.4211E+12,0.7141649,-2.0007393,-9.3437195,9.582175293
12:21.4,1.4211E+12,0.803529,-2.121688,-9.364377,9.63528803
12:21.4,1.4211E+12,0.81011534,-1.9501446,-9.333241,9.569155573
12:21.5,1.4211E+12,0.8690927,-2.1378543,-9.221724,9.506099971
12:21.5,1.4211E+12,0.90441924,-2.0005898,-9.19433,9.452832266
12:21.5,1.4211E+12,1.0033635,-2.095193,-9.257499,9.544519881
12:21.5,1.4211E+12,1.016087,-2.117796,-9.412726,9.701386676
12:21.5,1.4211E+12,1.0692265,-2.0447478,-9.302705,9.584600106
12:21.6,1.4211E+12,1.1337423,-1.9639161,-9.366622,9.637216701
12:21.6,1.4211E+12,1.0916798,-1.950444,-9.349558,9.61302405
12:21.6,1.4211E+12,1.1807446,-1.9041902,-9.311237,9.57701585
12:21.6,1.4211E+12,1.2189152,-1.8815873,-9.331894,9.59741479
12:21.6,1.4211E+12,1.3314812,-1.8266515,-9.357042,9.626200334
12:21.7,1.4211E+12,1.3418097,-1.9284397,-9.3437195,9.634543427
12:21.7,1.4211E+12,1.3030403,-1.7286054,-9.379046,9.625616579
12:21.7,1.4211E+12,1.3982424,-1.8660196,-9.326356,9.613429523
12:21.8,1.4211E+12,1.5175443,-1.8868263,-9.347162,9.655697367
12:21.8,1.4211E+12,1.6594491,-1.9505937,-9.207802,9.557311587
12:21.8,1.4211E+12,1.5593075,-1.9032921,-9.230255,9.552568663
12:21.8,1.4211E+12,1.4989829,-1.7790505,-9.2521105,9.540100582
12:21.8,1.4211E+12,1.6263679,-1.8848804,-9.218281,9.548536603
12:21.8,1.4211E+12,1.5631993,-1.8256036,-9.192534,9.501531555
12:21.8,1.4211E+12,1.4184504,-2.0628603,-9.335486,9.665334604
12:21.9,1.4211E+12,1.4284794,-1.833088,-9.177266,9.46694123
12:21.9,1.4211E+12,1.4965879,-1.9598744,-9.346563,9.666391411
12:21.9,1.4211E+12,1.377735,-2.085613,-9.349558,9.677921787
12:21.9,1.4211E+12,1.3211527,-2.0612137,-9.293574,9.610648473
12:21.9,1.4211E+12,1.2933105,-1.9119741,-9.346713,9.627530364
12:22.0,1.4211E+12,1.3536351,-1.9763402,-9.206755,9.513284722
12:22.0,1.4211E+12,1.3145664,-1.8961071,-9.23774,9.521509715
12:22.0,1.4211E+12,1.3627661,-1.7905765,-9.259595,9.529081551
12:22.0,1.4211E+12,1.4132112,-1.8131795,-9.285192,9.565541086
12:22.1,1.4211E+12,1.3280383,-1.8958076,-9.269923,9.554540523
12:22.1,1.4211E+12,1.3515395,-1.8955083,-9.270971,9.558792498
12:22.1,1.4211E+12,1.4497353,-1.7682729,-9.221424,9.500693768
12:22.1,1.4211E+12,1.4187497,-1.935026,-9.1765175,9.485022391
12:22.1,1.4211E+12,1.4914985,-1.8679656,-9.230106,9.534606443
12:22.1,1.4211E+12,1.4985337,-1.830693,-9.182505,9.482375134
12:22.2,1.4211E+12,1.4805712,-1.7612375,-9.188193,9.471902619
12:22.2,1.4211E+12,1.6575032,-1.7384849,-9.202863,9.511168908
12:22.2,1.4211E+12,1.5190412,-1.8202149,-9.257199,9.555961583
12:22.2,1.4211E+12,1.4920971,-1.9339783,-9.198671,9.517466784
12:22.2,1.4211E+12,1.420995,-1.8526973,-9.134006,9.427713386
12:22.3,1.4211E+12,1.3494438,-1.9856209,-9.19957,9.507669384
12:22.3,1.4211E+12,1.1939173,-2.0282822,-9.261391,9.555769485
12:22.3,1.4211E+12,1.2949572,-1.9712508,-9.376501,9.668583912
12:22.3,1.4211E+12,1.1928694,-1.8592836,-9.221125,9.482036658
12:22.3,1.4211E+12,1.2064911,-1.9371217,-9.197923,9.476805832
12:22.4,1.4211E+12,1.1109897,-1.9019449,-9.24268,9.501517042
12:22.4,1.4211E+12,1.093027,-1.9106269,-9.191187,9.451091029
12:22.4,1.4211E+12,1.0761123,-1.9061362,-9.267677,9.522668212
12:22.4,1.4211E+12,0.96938413,-2.1347108,-9.302106,9.593011614
12:22.4,1.4211E+12,1.0063573,-2.1263282,-9.263786,9.557811344
12:22.5,1.4211E+12,1.133892,-1.9778371,-9.226214,9.503713771
12:22.5,1.4211E+12,1.1558963,-1.8288968,-9.395661,9.641545799
12:22.5,1.4211E+12,1.2343332,-1.8642234,-9.229507,9.496457592
12:22.5,1.4211E+12,1.3168117,-1.9041902,-9.260492,9.545503939
12:22.6,1.4211E+12,1.3370197,-1.8627264,-9.285192,9.564107998
12:22.6,1.4211E+12,1.3557308,-1.9070343,-9.289233,9.579385969
12:22.6,1.4211E+12,1.3889617,-1.9736458,-9.192833,9.504350105
12:22.6,1.4211E+12,1.3862672,-1.9570303,-9.084758,9.395984901
12:22.6,1.4211E+12,1.3810282,-1.9453546,-8.974887,9.286562339
12:22.6,1.4211E+12,1.2129277,-1.9306852,-9.205557,9.48372388
12:22.7,1.4211E+12,1.3361216,-1.8381774,-9.261241,9.535968852
12:22.8,1.4211E+12,1.2859758,-1.8628762,-9.413624,9.681960458
12:22.8,1.4211E+12,1.4323714,-1.8402731,-9.413475,9.698030959
12:22.8,1.4211E+12,1.3304334,-1.8775456,-9.263038,9.544585036
12:22.8,1.4211E+12,1.4103671,-1.8676661,-9.241333,9.533076504
12:22.8,1.4211E+12,1.3617183,-1.812431,-9.26199,9.535388908
12:22.8,1.4211E+12,1.5206877,-1.7904267,-9.190588,9.486043782
12:22.8,1.4211E+12,1.3745915,-1.8613793,-9.19433,9.481030473
12:22.8,1.4211E+12,1.4558725,-1.8625767,-9.361981,9.655850296
12:22.8,1.4211E+12,1.5643969,-1.7666262,-9.294172,9.589053079
12:22.9,1.4211E+12,1.6845969,-1.750909,-9.1202345,9.438338115
12:22.9,1.4211E+12,1.5555652,-1.7911752,-9.263038,9.56200631
12:22.9,1.4211E+12,1.4721886,-1.905238,-9.193582,9.503642518
12:22.9,1.4211E+12,1.5880476,-2.0017872,-9.377699,9.719582589
12:22.9,1.4211E+12,1.434916,-1.9368224,-9.215885,9.525901599
12:23.0,1.4211E+12,1.3711487,-1.9202069,-9.17038,9.469060811
12:23.0,1.4211E+12,1.3581258,-1.9598744,-9.234746,9.537617472
12:23.1,1.4211E+12,1.3813275,-1.9157163,-9.29058,9.586079039
12:23.1,1.4211E+12,1.2451108,-1.8860779,-9.362131,9.631048105
12:23.1,1.4211E+12,1.3040881,-2.002835,-9.32905,9.630325421
12:23.1,1.4211E+12,1.278192,-1.9577788,-9.30061,9.589995776
12:23.1,1.4211E+12,1.364263,-1.9438577,-9.304801,9.603078566
12:23.1,1.4211E+12,1.2741504,-2.0218456,-9.248368,9.552153136
12:23.1,1.4211E+12,1.2418176,-1.9386187,-9.217083,9.500261704
12:23.1,1.4211E+12,1.3202546,-1.9151175,-9.250763,9.53872965
12:23.2,1.4211E+12,1.3992902,-1.9779868,-9.297466,9.607982039
12:23.2,1.4211E+12,1.3560301,-1.9833755,-9.377399,9.680299996
12:23.2,1.4211E+12,1.3379178,-1.8318906,-9.140293,9.417579484
12:23.2,1.4211E+12,1.2666659,-1.8827847,-9.219178,9.494343775
12:23.2,1.4211E+12,1.253194,-1.7546512,-9.206605,9.455732212
12:23.3,1.4211E+12,1.3130695,-1.8220111,-9.296568,9.563997728
12:23.3,1.4211E+12,1.0737172,-1.8863772,-9.335187,9.58420596
12:23.3,1.4211E+12,1.178649,-1.8067429,-9.270073,9.517761648
12:23.3,1.4211E+12,1.2184662,-2.0079246,-9.319171,9.610586309
12:23.4,1.4211E+12,1.1337423,-1.8714083,-9.234297,9.48998323
12:23.4,1.4211E+12,0.99587905,-1.9531385,-9.3050995,9.55988503
12:23.4,1.4211E+12,1.0566527,-2.0055294,-9.255104,9.528673211
12:23.4,1.4211E+12,0.9859996,-1.9103274,-9.219927,9.467238239
12:23.4,1.4211E+12,1.1021581,-1.9758911,-9.288784,9.560355972
12:23.4,1.4211E+12,0.9541159,-1.9775376,-9.220675,9.478493528
12:23.5,1.4211E+12,1.022823,-2.0444486,-9.227561,9.506514555
12:23.5,1.4211E+12,1.1340418,-1.8925145,-9.311836,9.569636964
12:23.5,1.4211E+12,1.0505154,-2.0598664,-9.336684,9.618747336
12:23.5,1.4211E+12,1.0036628,-1.8462607,-9.227711,9.463966816
12:23.5,1.4211E+12,1.1172767,-1.9727477,-9.35345,9.624295694
12:23.6,1.4211E+12,1.0563533,-1.8348843,-9.283545,9.521916323
12:23.6,1.4211E+12,1.0665321,-1.7193246,-9.375903,9.591721684
12:23.6,1.4211E+12,1.2240046,-1.9910097,-9.197923,9.490210451
12:23.6,1.4211E+12,1.2268487,-1.9643651,-9.350156,9.63272055
12:23.6,1.4211E+12,1.1850857,-1.8239571,-9.402248,9.650570712
12:23.7,1.4211E+12,1.1876303,-1.9568807,-9.306297,9.58368466
12:23.7,1.4211E+12,1.2277468,-1.7839901,-9.296867,9.545769686
12:23.7,1.4211E+12,1.2707076,-1.9296373,-9.311387,9.593754519
12:23.7,1.4211E+12,1.1903247,-1.9434086,-9.326206,9.600616034
12:23.7,1.4211E+12,1.2382251,-1.8673668,-9.374556,9.638597427
12:23.8,1.4211E+12,1.1258088,-1.8886226,-9.316925,9.5728487
12:23.8,1.4211E+12,1.1776012,-1.9130218,-9.283694,9.551616161
12:23.8,1.4211E+12,1.1765534,-1.8553917,-9.277408,9.533994727
12:23.8,1.4211E+12,1.1802956,-1.8287472,-9.29537,9.546796188
12:23.8,1.4211E+12,1.1636801,-2.0016375,-9.22831,9.51432654
12:23.9,1.4211E+12,1.1326946,-1.9618204,-9.3083935,9.580079639
12:23.9,1.4211E+12,1.1674223,-1.9264939,-9.166339,9.439069034
12:23.9,1.4211E+12,1.2521461,-1.9740949,-9.333241,9.621554349
12:23.9,1.4211E+12,1.3371693,-1.9113753,-9.347611,9.634272608
12:23.9,1.4211E+12,1.3175601,-1.9384689,-9.289383,9.580514747
12:24.1,1.4211E+12,1.2452605,-1.9261944,-9.325008,9.602951254
12:24.1,1.4211E+12,1.3624667,-2.0276835,-9.265882,9.582504115
12:24.1,1.4211E+12,1.3286371,-1.9435583,-9.166937,9.464429691
12:24.1,1.4211E+12,1.283431,-2.031725,-9.292676,9.598381574
12:24.1,1.4211E+12,1.2778926,-1.9998413,-9.339528,9.636345676
12:24.1,1.4211E+12,1.1069481,-2.0152593,-9.235195,9.517112526
12:24.1,1.4211E+12,1.2099339,-1.8652711,-9.200019,9.464857417
12:24.2,1.4211E+12,1.1139835,-1.9026933,-9.244626,9.503910296
12:24.2,1.4211E+12,1.1186239,-1.9143691,-9.379795,9.638292521
12:24.2,1.4211E+12,1.0330019,-1.9434086,-9.404493,9.658592988
12:24.2,1.4211E+12,1.151705,-1.7928218,-9.328301,9.568585787
12:24.2,1.4211E+12,1.1320958,-1.875001,-9.24762,9.50345965
12:24.2,1.4211E+12,1.0036628,-1.8672171,-9.238488,9.478581077
12:24.2,1.4211E+12,1.0909314,-1.8116826,-9.260044,9.498459878
12:24.2,1.4211E+12,1.0310559,-1.7839901,-9.251811,9.478486363
12:24.3,1.4211E+12,1.171464,-1.7519568,-9.301956,9.537718069
12:24.3,1.4211E+12,1.1458671,-1.8241067,-9.373957,9.618287088
12:24.3,1.4211E+12,1.3186079,-1.8970052,-9.3100395,9.592402776
12:24.4,1.4211E+12,1.3795313,-1.9035915,-9.236842,9.531317713
12:24.4,1.4211E+12,1.3826747,-1.8589842,-9.361981,9.644392144
12:24.4,1.4211E+12,1.4337186,-1.87545,-9.304951,9.599738269
12:24.4,1.4211E+12,1.4099181,-1.9538869,-9.260642,9.568961977
12:24.4,1.4211E+12,1.3687537,-1.8959574,-9.310788,9.599943455
12:24.4,1.4211E+12,1.2466077,-1.9218535,-9.2184305,9.498790055
12:24.4,1.4211E+12,1.2693603,-1.8970052,-9.282198,9.558718743
12:24.5,1.4211E+12,1.1687695,-1.8943107,-9.301059,9.563688289
12:24.5,1.4211E+12,1.171913,-1.9574794,-9.275311,9.55177993
12:24.5,1.4211E+12,1.131497,-1.8405725,-9.278904,9.527121917
12:24.5,1.4211E+12,1.1268567,-1.9169137,-9.272468,9.535356677
12:24.5,1.4211E+12,0.96399534,-1.9655626,-9.205707,9.462439681
12:24.6,1.4211E+12,1.0401869,-1.9089803,-9.250164,9.502195988
12:24.6,1.4211E+12,1.1262579,-1.9077828,-9.452992,9.70912714
12:24.6,1.4211E+12,1.2641213,-1.9353255,-9.417516,9.697066312
12:24.6,1.4211E+12,1.237327,-1.9396664,-9.171428,9.455600214
12:24.6,1.4211E+12,1.3211527,-1.8372793,-9.248817,9.521641433
12:24.7,1.4211E+12,1.2683126,-1.8190173,-9.147478,9.412427665
12:24.7,1.4211E+12,1.4443464,-1.9151175,-9.315129,9.619014495
12:24.7,1.4211E+12,1.3834232,-1.864373,-9.413624,9.695672398
12:24.7,1.4211E+12,1.3169614,-1.9128722,-9.304801,9.590244472
12:24.7,1.4211E+12,1.4069242,-1.9477496,-9.362431,9.665830458
12:24.8,1.4211E+12,1.332978,-1.8996996,-9.259146,9.545547316
12:24.8,1.4211E+12,1.2847782,-1.9169137,-9.301357,9.58334259
12:24.8,1.4211E+12,1.2126284,-1.8565892,-9.340127,9.599758511
12:24.8,1.4211E+12,1.2702584,-1.8193167,-9.356893,9.616387901
12:24.8,1.4211E+12,1.2976515,-1.8965561,-9.236842,9.518407146
12:24.9,1.4211E+12,1.223406,-1.900897,-9.279054,9.550443695
12:24.9,1.4211E+12,1.1038046,-1.984124,-9.299861,9.5730114
12:24.9,1.4211E+12,1.0903326,-1.9531385,-9.245973,9.512706865
12:24.9,1.4211E+12,1.0347981,-1.9161654,-9.376053,9.625635917
12:24.9,1.4211E+12,1.0368937,-1.9800824,-9.279054,9.544460068
12:25.0,1.4211E+12,1.1294014,-1.9233503,-9.279353,9.54364794
12:25.0,1.4211E+12,1.1237133,-2.0085232,-9.247919,9.53000015
12:25.0,1.4211E+12,1.194965,-1.7687219,-9.286538,9.5286991
12:25.0,1.4211E+12,1.1820918,-1.8881736,-9.278904,9.542567789
12:25.0,1.4211E+12,1.1220666,-1.9088305,-9.278755,9.539285177
12:25.1,1.4211E+12,1.2319381,-1.9667602,-9.3541975,9.637781282
12:25.1,1.4211E+12,1.1488609,-1.9468515,-9.244626,9.516996481
12:25.1,1.4211E+12,1.1302996,-1.8911673,-9.331295,9.587865107
12:25.1,1.4211E+12,1.2133768,-1.8630258,-9.322614,9.584063866
12:25.1,1.4211E+12,1.1250604,-1.8703606,-9.398506,9.648622944
12:25.2,1.4211E+12,1.2470567,-1.8839822,-9.266031,9.537498091
12:25.2,1.4211E+12,1.2986994,-1.8940114,-9.246122,9.527049457
12:25.2,1.4211E+12,1.2482543,-1.88024,-9.369616,9.63759022
12:25.2,1.4211E+12,1.3058844,-1.9514918,-9.315429,9.60681382
12:25.2,1.4211E+12,1.3275893,-1.8422191,-9.303753,9.576851489
12:25.3,1.4211E+12,1.3431569,-1.884581,-9.217832,9.503901451
12:25.3,1.4211E+12,1.1594888,-1.8299446,-9.265133,9.515030269
12:25.3,1.4211E+12,1.2615765,-1.9895128,-9.278007,9.572416118
12:25.3,1.4211E+12,1.3850697,-1.8297949,-9.355395,9.632755735
12:25.3,1.4211E+12,1.3552817,-1.83698,-9.312883,9.588590813
12:25.4,1.4211E+12,1.2802876,-1.8134788,-9.249415,9.512072305
12:25.4,1.4211E+12,1.2946577,-1.9109262,-9.227262,9.511579339
12:25.4,1.4211E+12,1.2106824,-1.8871257,-9.089997,9.362427075
12:25.4,1.4211E+12,1.0728191,-1.8353333,-9.237591,9.479054627
12:25.4,1.4211E+12,1.1813434,-1.7821939,-9.167835,9.413871994
12:25.5,1.4211E+12,1.2528946,-1.861978,-9.273665,9.541360987
12:25.5,1.4211E+12,1.219514,-1.9332298,-9.320667,9.596844543
12:25.5,1.4211E+12,1.1476635,-1.8601817,-9.243877,9.498771997
12:25.5,1.4211E+12,1.1774515,-2.0791764,-9.292826,9.595101959
12:25.5,1.4211E+12,1.1832893,-1.8857785,-9.334888,9.596690476
12:25.6,1.4211E+12,1.1837384,-2.0445983,-9.303903,9.599178602
12:25.6,1.4211E+12,1.1645782,-2.032174,-9.390123,9.677829483
12:25.6,1.4211E+12,1.2674145,-1.9079324,-9.374705,9.650473532
12:25.7,1.4211E+12,1.2692107,-1.87545,-9.360335,9.630372777
12:25.7,1.4211E+12,1.2674145,-1.9886147,-9.298214,9.59258628
12:25.7,1.4211E+12,1.1515553,-1.988914,-9.265732,9.546499254
12:25.7,1.4211E+12,1.1831397,-1.9718496,-9.3293495,9.608578068
12:25.7,1.4211E+12,1.2039464,-1.8486557,-9.131461,9.394178773
12:25.7,1.4211E+12,1.2846286,-1.8682649,-9.203462,9.478628443
12:25.7,1.4211E+12,1.2159215,-2.0170555,-9.202863,9.499456057
12:25.8,1.4211E+12,1.119522,-2.032174,-9.34836,9.631972558
12:25.8,1.4211E+12,1.247356,-1.9157163,-9.231303,9.510143059
12:25.8,1.4211E+12,1.3793815,-1.8217118,-9.356443,9.631425274
12:25.8,1.4211E+12,1.4374608,-1.8146764,-9.325158,9.608221256
12:25.8,1.4211E+12,1.3945001,-1.7304016,-9.371562,9.63146378
12:25.9,1.4211E+12,1.314716,-1.8699116,-9.35315,9.628419521
12:25.9,1.4211E+12,1.3108242,-2.0151095,-9.334589,9.63916377
12:25.9,1.4211E+12,1.1660751,-1.9199076,-9.360335,9.626092023
12:25.9,1.4211E+12,1.1150312,-1.7774038,-9.289982,9.523981542
12:25.9,1.4211E+12,1.2723541,-1.7570462,-9.32396,9.572999863
12:26.0,1.4211E+12,1.2082874,-1.9410137,-9.310938,9.587547083
12:26.0,1.4211E+12,1.1526031,-1.9911593,-9.335636,9.614952355
12:26.0,1.4211E+12,1.1189232,-1.8844314,-9.182205,9.440124972
12:26.0,1.4211E+12,1.1084449,-1.8080901,-9.321865,9.560073587
12:26.0,1.4211E+12,1.0086026,-1.9505937,-9.249865,9.506949958
12:26.1,1.4211E+12,1.0931767,-2.003434,-9.1676855,9.447499167
12:26.1,1.4211E+12,1.146915,-1.8660196,-9.36782,9.620472687
12:26.1,1.4211E+12,1.1825409,-1.9023939,-9.313333,9.578918368
12:26.1,1.4211E+12,1.1862831,-1.8582358,-9.294472,9.552356654
12:26.2,1.4211E+12,1.219514,-1.9700532,-9.2331,9.519372858
12:26.2,1.4211E+12,1.3015435,-1.9396664,-9.276509,9.566082817
12:26.2,1.4211E+12,1.2566369,-1.945205,-9.373058,9.654904197
12:26.2,1.4211E+12,1.2046949,-1.9303857,-9.29043,9.565028402
12:26.2,1.4211E+12,1.1689192,-1.927392,-9.253008,9.523621636
12:26.2,1.4211E+12,1.18778,-2.0333717,-9.140293,9.438769937
12:26.3,1.4211E+12,1.2687616,-1.8878741,-9.235644,9.51162156
12:26.3,1.4211E+12,1.3302836,-1.8293458,-9.271121,9.54305219
12:26.3,1.4211E+12,1.3245955,-2.0031345,-9.332193,9.636229929
12:26.3,1.4211E+12,1.3627661,-1.8953586,-9.3470125,9.6341143
12:26.3,1.4211E+12,1.375789,-1.895658,-9.210197,9.503370108
12:26.4,1.4211E+12,1.35124,-1.9989432,-9.26693,9.575887169
12:26.4,1.4211E+12,1.2732522,-1.888922,-9.239686,9.516354074
12:26.4,1.4211E+12,1.4171032,-1.9205062,-9.331295,9.63169725
12:26.4,1.4211E+12,1.2564871,-1.9246975,-9.2537565,9.534947806
12:26.4,1.4211E+12,1.341211,-1.877396,-9.459728,9.737038386
12:26.5,1.4211E+12,1.2811857,-1.8015038,-9.31453,9.573260775
12:26.5,1.4211E+12,1.2325369,-1.9011965,-9.373957,9.643897821
12:26.5,1.4211E+12,1.1178753,-1.8883232,-9.264833,9.521162755
12:26.5,1.4211E+12,1.1412268,-1.9946022,-9.366173,9.643963563
12:26.5,1.4211E+12,1.3115726,-1.9196081,-9.400302,9.683532188
12:26.6,1.4211E+12,1.2906162,-1.8377284,-9.268426,9.536595638
12:26.6,1.4211E+12,1.1843371,-1.9359242,-9.225466,9.500509449
12:26.7,1.4211E+12,1.2022998,-1.8896704,-9.339378,9.604184528
12:26.7,1.4211E+12,1.1978091,-1.8368303,-9.443711,9.694966201
12:26.7,1.4211E+12,1.2322376,-1.8272502,-9.355395,9.611486274
12:26.7,1.4211E+12,1.1259586,-1.7362394,-9.302256,9.529652497
12:26.7,1.4211E+12,1.2696598,-1.7860858,-9.197623,9.455073101
12:26.7,1.4211E+12,1.2196637,-1.7432748,-9.430539,9.667556692
12:26.7,1.4211E+12,1.1663746,-1.8428178,-9.389674,9.63962577
12:26.7,1.4211E+12,1.2419673,-1.9886147,-9.39162,9.679855238
12:26.8,1.4211E+12,1.2499008,-1.8857785,-9.2697735,9.541861103
12:26.8,1.4211E+12,1.1096425,-1.8679656,-9.362131,9.610936418
12:26.8,1.4211E+12,1.2696598,-1.9308348,-9.463321,9.741386112
12:26.8,1.4211E+12,1.2796888,-1.9507434,-9.341624,9.628548291
12:26.9,1.4211E+12,1.2632232,-1.8781444,-9.36273,9.632438543
12:26.9,1.4211E+12,1.2540921,-1.9600241,-9.384884,9.669047997
12:26.9,1.4211E+12,1.2316388,-1.886527,-9.308543,9.577311264
12:27.0,1.4211E+12,1.3280383,-1.90913,-9.405392,9.688646023
12:27.0,1.4211E+12,1.2472064,-1.7910255,-9.341774,9.593332977
12:27.0,1.4211E+12,1.2518468,-1.8513501,-9.269624,9.535226621
12:27.0,1.4211E+12,1.2726535,-1.9022442,-9.368119,9.64364213
12:27.0,1.4211E+12,1.2843292,-1.9628682,-9.2609415,9.553396806
12:27.0,1.4211E+12,1.2371773,-1.9745439,-9.256302,9.545080303
12:27.0,1.4211E+12,1.1831397,-1.9020946,-9.31468,9.580242529
12:27.0,1.4211E+12,1.2513977,-2.031725,-9.320667,9.621264782
12:27.1,1.4211E+12,1.3207036,-2.028432,-9.411978,9.718236684
12:27.1,1.4211E+12,1.203647,-1.9200572,-9.370813,9.640929521
12:27.1,1.4211E+12,1.2094848,-1.9392173,-9.397009,9.670945939
12:27.1,1.4211E+12,1.1500584,-1.8034497,-9.304502,9.547189252
12:27.1,1.4211E+12,1.246907,-1.8959574,-9.411529,9.681234924
12:27.2,1.4211E+12,1.2340338,-1.8890717,-9.467362,9.732542039
12:27.2,1.4211E+12,1.3168117,-1.9767892,-9.363329,9.65989744
12:27.2,1.4211E+12,1.2096345,-1.9166144,-9.338331,9.609425178
12:27.2,1.4211E+12,1.2049942,-1.936523,-9.364377,9.638137214
12:27.3,1.4211E+12,1.2269984,-1.8130298,-9.265882,9.52098584
12:27.3,1.4211E+12,1.2314891,-1.8202149,-9.372011,9.626231759
12:27.3,1.4211E+12,1.1774515,-1.9272423,-9.424103,9.690942796
12:27.3,1.4211E+12,1.2193643,-1.8428178,-9.336085,9.594024696
12:27.3,1.4211E+12,1.1451187,-1.9583775,-9.336984,9.60863203
12:27.3,1.4211E+12,1.2650194,-1.8055453,-9.371412,9.627233808
12:27.4,1.4211E+12,1.1876303,-1.8239571,-9.331894,9.582355183
12:27.4,1.4211E+12,1.1746074,-1.838926,-9.258397,9.512058998
12:27.4,1.4211E+12,1.201701,-1.8514998,-9.310638,9.568705073
12:27.4,1.4211E+12,1.3692027,-1.8895208,-9.231453,9.521802843
12:27.4,1.4211E+12,1.2750485,-1.9404149,-9.275461,9.5616492
12:27.5,1.4211E+12,1.1889775,-1.8293458,-9.35345,9.604540616
12:27.5,1.4211E+12,1.2939093,-1.8699116,-9.205557,9.482249224
12:27.5,1.4211E+12,1.2994478,-1.9103274,-9.351953,9.633116851
12:27.5,1.4211E+12,1.2418176,-1.8844314,-9.347312,9.615894877
12:27.5,1.4211E+12,1.2802876,-1.9802321,-9.326805,9.620277907
12:27.6,1.4211E+12,1.2802876,-1.8887722,-9.290131,9.566249566
12:27.6,1.4211E+12,1.2255015,-1.9481987,-9.329799,9.609499544
12:27.6,1.4211E+12,1.3310322,-1.852847,-9.427995,9.700091672
12:27.6,1.4211E+12,1.2467574,-1.9267932,-9.310339,9.589022283
12:27.6,1.4211E+12,1.2395723,-1.8260527,-9.241931,9.501804911
12:27.7,1.4211E+12,1.1288027,-1.9672092,-9.273965,9.5472789
12:27.7,1.4211E+12,1.2382251,-1.864822,-9.362281,9.6261658
12:27.7,1.4211E+12,1.1466156,-1.9130218,-9.29552,9.559344738
12:27.7,1.4211E+12,1.2305909,-1.8949095,-9.340576,9.609963371
12:27.7,1.4211E+12,1.1755055,-1.9428099,-9.3277025,9.600122781
12:27.8,1.4211E+12,1.361868,-1.8444644,-9.331445,9.608985335
12:27.8,1.4211E+12,1.1816428,-1.8697618,-9.195678,9.457948127
12:27.8,1.4211E+12,1.2382251,-1.8363812,-9.272767,9.53360924
12:27.8,1.4211E+12,1.1910732,-1.9182609,-9.231902,9.504019928
12:27.8,1.4211E+12,1.2280463,-1.907184,-9.277108,9.550402157
12:27.9,1.4211E+12,1.239273,-1.9511925,-9.332343,9.614342183
12:27.9,1.4211E+12,1.1183244,-1.8685642,-9.332792,9.583485178
12:27.9,1.4211E+12,1.1683204,-1.9046392,-9.31992,9.584024825
12:28.0,1.4211E+12,1.291664,-1.7829423,-9.27636,9.534051289
12:28.0,1.4211E+12,1.2048445,-1.7729132,-9.217981,9.463933918
12:28.0,1.4211E+12,1.2118798,-1.8507514,-9.392219,9.649233707
12:28.0,1.4211E+12,1.2617263,-1.9606229,-9.260193,9.549197338
12:28.0,1.4211E+12,1.2064911,-1.9546353,-9.312136,9.591251056
12:28.0,1.4211E+12,1.3105247,-1.9351758,-9.3486595,9.636379757
12:28.0,1.4211E+12,1.2225078,-1.9279907,-9.408535,9.681539356
12:28.1,1.4211E+12,1.25514,-1.821113,-9.235045,9.496203722
12:28.1,1.4211E+12,1.1567944,-1.8609302,-9.215885,9.472791079
12:28.1,1.4211E+12,1.1344908,-1.9896625,-9.379944,9.655525655
12:28.1,1.4211E+12,1.1317964,-1.8474582,-9.315728,9.564353248
12:28.1,1.4211E+12,1.2281959,-1.9080821,-9.257349,9.531408761
12:28.2,1.4211E+12,1.201701,-1.9046392,-9.293873,9.562834889
12:28.2,1.4211E+12,1.2268487,-1.902843,-9.345666,9.615999282
12:28.2,1.4211E+12,1.2154725,-1.8354831,-9.361084,9.616458041
12:28.2,1.4211E+12,1.2650194,-1.8808388,-9.191936,9.467286628
12:28.3,1.4211E+12,1.3419594,-1.9196081,-9.239536,9.531777158
12:28.3,1.4211E+12,1.2160711,-1.8613793,-9.312734,9.574475253
12:28.3,1.4211E+12,1.2584331,-1.9576291,-9.276958,9.564408779
12:28.3,1.4211E+12,1.2407699,-1.9181113,-9.264684,9.542171164
12:28.3,1.4211E+12,1.2129277,-1.9357746,-9.323662,9.599431754
12:28.3,1.4211E+12,1.163231,-1.9145187,-9.257199,9.524401374
12:28.4,1.4211E+12,1.2361294,-1.9312838,-9.342821,9.620092372
12:28.4,1.4211E+12,1.2593312,-1.8420694,-9.350306,9.612874546
12:28.4,1.4211E+12,1.255589,-1.923051,-9.326506,9.605120668
12:28.4,1.4211E+12,1.1593392,-1.9223026,-9.163644,9.43460047
12:28.4,1.4211E+12,1.2320879,-1.8959574,-9.337732,9.607597721
12:28.5,1.4211E+12,1.2570859,-1.9490968,-9.207952,9.495558084
12:28.5,1.4211E+12,1.1508069,-1.8296453,-9.308842,9.556489828
12:28.5,1.4211E+12,1.1999048,-1.848506,-9.1852,9.44587979
12:28.5,1.4211E+12,1.1916718,-1.8408719,-9.272767,9.528541277
12:28.6,1.4211E+12,1.1535013,-1.9440074,-9.1958275,9.469581481
12:28.6,1.4211E+12,1.2470567,-2.0169058,-9.311088,9.608299494
12:28.6,1.4211E+12,1.2496015,-1.9121237,-9.27621,9.553313191
12:28.6,1.4211E+12,1.233435,-1.8776953,-9.2151375,9.48503351
12:28.6,1.4211E+12,1.1927197,-1.9612216,-9.291029,9.570380887
12:28.6,1.4211E+12,1.3346246,-1.8474582,-9.366472,9.639767754
12:28.7,1.4211E+12,1.2425661,-1.9151175,-9.199719,9.478738061
12:28.7,1.4211E+12,1.3340259,-1.853296,-9.230854,9.509100732
12:28.7,1.4211E+12,1.1490107,-1.959126,-9.260044,9.53450655
12:28.7,1.4211E+12,1.2476555,-1.8500029,-9.252708,9.517970388
12:28.7,1.4211E+12,1.2418176,-1.9645147,-9.249865,9.53737026
12:28.8,1.4211E+12,1.2272978,-1.9318826,-9.242829,9.521991293
12:28.8,1.4211E+12,1.2082874,-1.9969972,-9.268576,9.55795257
12:28.8,1.4211E+12,1.2178674,-1.8836828,-9.267827,9.535411853
12:28.8,1.4211E+12,1.3701009,-1.8901194,-9.29522,9.583884529
12:28.8,1.4211E+12,1.1951147,-1.8949095,-9.231303,9.499259773
12:28.9,1.4211E+12,1.2452605,-1.9652632,-9.224567,9.513441517
12:28.9,1.4211E+12,1.1638298,-1.8769469,-9.279203,9.538398072
12:28.9,1.4211E+12,1.2231065,-1.8327887,-9.220376,9.480001978
12:28.9,1.4211E+12,1.2561878,-1.9086809,-9.272018,9.549418221
12:28.9,1.4211E+12,1.2028985,-1.8209633,-9.273665,9.527000298
12:29.0,1.4211E+12,1.2557387,-1.9237994,-9.339977,9.618370661
12:29.0,1.4211E+12,1.1984079,-1.8721569,-9.283395,9.545814563
12:29.0,1.4211E+12,1.1097922,-1.9246975,-9.3012085,9.562875026
12:29.0,1.4211E+12,1.1320958,-1.8851798,-9.267677,9.524987179
12:29.0,1.4211E+12,1.119971,-1.905238,-9.145981,9.409210133
12:29.1,1.4211E+12,1.1831397,-1.8354831,-9.2118435,9.467147323
12:29.1,1.4211E+12,1.2519965,-1.9603235,-9.27636,9.563535869
12:29.1,1.4211E+12,1.2684622,-1.83698,-9.31947,9.583110818
12:29.1,1.4211E+12,1.2470567,-1.959575,-9.267977,9.554605291
12:29.1,1.4211E+12,1.3211527,-1.9570303,-9.312584,9.60726979
12:29.2,1.4211E+12,1.300795,-1.839375,-9.30974,9.578445954
12:29.2,1.4211E+12,1.2663666,-1.9860699,-9.3244095,9.617316182
12:29.2,1.4211E+12,1.198857,-1.9001486,-9.335037,9.601600835
12:29.3,1.4211E+12,1.1672727,-1.8844314,-9.237142,9.499389432
12:29.3,1.4211E+12,1.1900253,-1.8788928,-9.245823,9.509555264
12:29.3,1.4211E+12,1.1521541,-1.781146,-9.296568,9.535518692
12:29.3,1.4211E+12,1.2686119,-1.791774,-9.3012085,9.556793907
12:29.3,1.4211E+12,1.0907817,-1.9181113,-9.299711,9.557906693
12:29.3,1.4211E+12,1.1946657,-1.8529967,-9.343121,9.599725669
12:29.3,1.4211E+12,1.241668,-1.7931212,-9.275761,9.528733661
12:29.4,1.4211E+12,1.1870315,-1.7792001,-9.331146,9.573133366
12:29.4,1.4211E+12,1.1852353,-1.9161654,-9.369316,9.636418155
12:29.4,1.4211E+12,1.2115805,-1.866768,-9.231603,9.49606466
12:29.4,1.4211E+12,1.1801459,-1.7977616,-9.262289,9.508663872
12:29.4,1.4211E+12,1.1927197,-1.905238,-9.226812,9.496661087
12:29.5,1.4211E+12,1.2593312,-1.8398241,-9.409583,9.670114789
12:29.5,1.4211E+12,1.2567865,-1.8440154,-9.362281,9.62456288
12:29.5,1.4211E+12,1.2970527,-1.8062938,-9.309291,9.571203786
12:29.5,1.4211E+12,1.2042458,-1.9609222,-9.337433,9.616812302
12:29.6,1.4211E+12,1.0996133,-1.87066,-9.2747135,9.525168174
12:29.6,1.4211E+12,1.2467574,-1.8284477,-9.316028,9.575280816
12:29.6,1.4211E+12,1.2756473,-1.850901,-9.270672,9.539311814
12:29.6,1.4211E+12,1.1681708,-1.8262024,-9.193132,9.445279995
12:29.6,1.4211E+12,1.232986,-1.8362316,-9.278007,9.537998472
12:29.6,1.4211E+12,1.1698173,-1.8272502,-9.31468,9.564025267
12:29.7,1.4211E+12,1.2178674,-1.9248472,-9.3613825,9.634506737
12:29.7,1.4211E+12,1.2855268,-1.9242485,-9.359886,9.641720665
12:29.7,1.4211E+12,1.2317885,-1.8540444,-9.317973,9.580156803
12:29.7,1.4211E+12,1.2207115,-1.9483484,-9.275761,9.556460651
12:29.7,1.4211E+12,1.3120216,-1.8030007,-9.330098,9.592858849
12:29.8,1.4211E+12,1.3033397,-1.8500029,-9.289832,9.561494846
12:29.8,1.4211E+12,1.23104,-1.8155745,-9.269025,9.525050903
12:29.8,1.4211E+12,1.242117,-1.8875748,-9.243877,9.516041995
12:29.8,1.4211E+12,1.2325369,-1.9360739,-9.373957,9.650834119
12:29.8,1.4211E+12,1.2981006,-1.8193167,-9.309141,9.573666204
12:29.9,1.4211E+12,1.3323793,-1.9261944,-9.31962,9.609410825
12:29.9,1.4211E+12,1.2795392,-1.7835411,-9.27621,9.532382251
12:29.9,1.4211E+12,1.2689112,-1.8829345,-9.297017,9.570271839
12:29.9,1.4211E+12,1.1279045,-1.9284397,-9.263487,9.529073388
12:29.9,1.4211E+12,1.2163706,-1.920656,-9.409733,9.680472718
12:30.0,1.4211E+12,1.2316388,-1.889371,-9.373957,9.641458746
12:30.0,1.4211E+12,1.2410692,-1.9335293,-9.239985,9.521350278
12:30.0,1.4211E+12,1.3365706,-1.9025437,-9.281449,9.568249006
12:30.0,1.4211E+12,1.217119,-1.8414706,-9.370214,9.626697411
12:30.0,1.4211E+12,1.2120296,-1.8724562,-9.381291,9.642807102
12:30.1,1.4211E+12,1.2022998,-1.8321899,-9.457483,9.708060019
12:30.1,1.4211E+12,1.2133768,-1.8030007,-9.341475,9.590946249
12:30.1,1.4211E+12,1.1966116,-1.8684146,-9.389375,9.64796431
12:30.1,1.4211E+12,1.1704161,-1.8137783,-9.267079,9.515167826
12:30.1,1.4211E+12,1.1282039,-1.8431172,-9.227411,9.477079657
12:30.2,1.4211E+12,1.3034893,-1.9088305,-9.275311,9.558980719
12:30.2,1.4211E+12,1.2669654,-1.8914666,-9.38683,9.658955672
12:30.2,1.4211E+12,1.2275972,-1.8760487,-9.305998,9.572259524
12:30.2,1.4211E+12,1.2519965,-1.8702109,-9.2907295,9.559437153
12:30.3,1.4211E+12,1.307531,-1.7661772,-9.295969,9.552175609
12:30.3,1.4211E+12,1.2266991,-1.9077828,-9.4684105,9.736283854
12:30.3,1.4211E+12,1.352737,-1.9223026,-9.3541975,9.645006768
12:30.3,1.4211E+12,1.1418256,-1.8407222,-9.352252,9.599825071
12:30.3,1.4211E+12,1.2407699,-1.9586769,-9.269923,9.555490441
12:30.3,1.4211E+12,1.25993,-1.9709514,-9.267379,9.558053492
12:30.4,1.4211E+12,1.307531,-1.9673588,-9.281749,9.577630316
12:30.4,1.4211E+12,1.2160711,-1.9284397,-9.407487,9.679799598
12:30.4,1.4211E+12,1.1585907,-1.8967057,-9.289233,9.551422651
12:30.4,1.4211E+12,1.267564,-1.9407142,-9.3365345,9.619977472
12:30.4,1.4211E+12,1.2982503,-1.9830762,-9.2521105,9.550894919
12:30.5,1.4211E+12,1.2265494,-1.9646645,-9.210048,9.496805473
12:30.5,1.4211E+12,1.2862751,-1.8803897,-9.2134905,9.490983945
12:30.5,1.4211E+12,1.251248,-1.9182609,-9.335486,9.612317374
12:30.5,1.4211E+12,1.2636722,-1.8606308,-9.251661,9.521136784
12:30.5,1.4211E+12,1.296454,-1.791774,-9.306148,9.565335208
12:30.6,1.4211E+12,1.201252,-1.9127225,-9.349109,9.618074278
12:30.6,1.4211E+12,1.2915143,-1.8965561,-9.23295,9.513795243
12:30.6,1.4211E+12,1.3352234,-1.9917581,-9.296418,9.600693177
12:30.6,1.4211E+12,1.2958553,-1.823059,-9.198522,9.466551223
12:30.6,1.4211E+12,1.131048,-1.8911673,-9.372459,9.6280201
12:30.7,1.4211E+12,1.1934682,-1.8365309,-9.219777,9.476365338
12:30.7,1.4211E+12,1.1445199,-1.9766395,-9.280551,9.557492159
12:30.7,1.4211E+12,1.281036,-1.9255958,-9.307795,9.590830005
12:30.7,1.4211E+12,1.1982582,-1.8488054,-9.376053,9.631421182
12:30.7,1.4211E+12,1.228645,-1.8562899,-9.262139,9.525891013
12:30.8,1.4211E+12,1.133443,-1.8999989,-9.2151375,9.476995726
12:30.8,1.4211E+12,1.2202624,-1.9576291,-9.22307,9.507174777
12:30.8,1.4211E+12,1.163231,-1.9338286,-9.369765,9.637701778
12:30.9,1.4211E+12,1.2576846,-1.8486557,-9.322165,9.586556146
12:30.9,1.4211E+12,1.2136761,-1.8678159,-9.274115,9.537869518
12:30.9,1.4211E+12,1.2573853,-1.821562,-9.29537,9.555260821
12:30.9,1.4211E+12,1.1996055,-1.7142352,-9.300011,9.532463495
12:30.9,1.4211E+12,1.3148657,-1.8279986,-9.187445,9.459365535
12:30.9,1.4211E+12,1.4085709,-1.8236576,-9.2730665,9.555080394
12:30.9,1.4211E+12,1.3114228,-1.843267,-9.32905,9.599408153
12:31.0,1.4211E+12,1.2192147,-1.8694625,-9.304352,9.568298734
12:31.0,1.4211E+12,1.1124866,-1.8839822,-9.398506,9.649815045
12:31.0,1.4211E+12,1.1780503,-1.8553917,-9.353748,9.608479719
12:31.0,1.4211E+12,1.2645704,-1.9013461,-9.379645,9.653600137
12:31.0,1.4211E+12,1.3431569,-1.9646645,-9.371113,9.668595343
12:31.1,1.4211E+12,1.3458513,-1.832639,-9.403146,9.674142656
12:31.1,1.4211E+12,1.2141252,-1.8693128,-9.334739,9.597175759
12:31.1,1.4211E+12,1.25993,-2.0110679,-9.216185,9.51682109
12:31.1,1.4211E+12,1.2374767,-1.8275496,-9.371861,9.628243076
12:31.1,1.4211E+12,1.2271482,-1.8534458,-9.433982,9.692325336
12:31.2,1.4211E+12,1.2225078,-1.780697,-9.333092,9.579771052
12:31.2,1.4211E+12,1.1955638,-1.8121316,-9.224418,9.476448764
12:31.2,1.4211E+12,1.219065,-1.8241067,-9.272468,9.528491357
12:31.2,1.4211E+12,1.1150312,-1.8929635,-9.293574,9.549718482
12:31.2,1.4211E+12,1.2624747,-1.8714083,-9.303453,9.573413661
12:31.3,1.4211E+12,1.2099339,-1.9690055,-9.220975,9.506171819
12:31.3,1.4211E+12,1.2165202,-1.9691551,-9.330847,9.613646496
12:31.3,1.4211E+12,1.280587,-1.8166223,-9.316626,9.57807599
12:31.3,1.4211E+12,1.2394226,-1.9046392,-9.170829,9.448170374
12:31.3,1.4211E+12,1.3895603,-1.955234,-9.3012085,9.605534727
12:31.4,1.4211E+12,1.217119,-1.9354751,-9.33384,9.609787285
12:31.4,1.4211E+12,1.269061,-2.045197,-9.21364,9.522841416
12:31.4,1.4211E+12,1.3256433,-1.9323317,-9.258697,9.550639041
12:31.4,1.4211E+12,1.2367282,-1.8091378,-9.317823,9.572058383
12:31.4,1.4211E+12,1.3027409,-1.956731,-9.242979,9.537221338
12:31.5,1.4211E+12,1.1261083,-1.9092796,-9.32426,9.584116706
12:31.5,1.4211E+12,1.2391232,-1.8787432,-9.362431,9.629133738
12:31.6,1.4211E+12,1.2621753,-1.7842896,-9.378597,9.629893953
12:31.6,1.4211E+12,1.2096345,-1.9431093,-9.392368,9.667236731
12:31.6,1.4211E+12,1.1976595,-1.832639,-9.279503,9.534260848
12:31.6,1.4211E+12,1.1587404,-1.8311421,-9.33399,9.582229909
12:31.6,1.4211E+12,1.167123,-1.8655705,-9.400452,9.654585812
12:31.6,1.4211E+12,1.2413685,-1.8703606,-9.329948,9.59620624
12:31.6,1.4211E+12,1.1991563,-1.9594253,-9.257948,9.538706648
12:31.6,1.4211E+12,1.1976595,-1.9776874,-9.234746,9.519777803
12:31.7,1.4211E+12,1.1421249,-1.8077906,-9.366622,9.607609684
12:31.7,1.4211E+12,1.2103829,-1.8321899,-9.342971,9.597554569
12:31.7,1.4211E+12,1.2168196,-1.7904267,-9.336085,9.583775917
12:31.7,1.4211E+12,1.2302916,-1.8233583,-9.313183,9.569411189
12:31.7,1.4211E+12,1.3016931,-1.8284477,-9.307345,9.574147318
12:31.8,1.4211E+12,1.1575428,-1.8055453,-9.303903,9.547906064
12:31.8,1.4211E+12,1.2063414,-1.7998571,-9.397758,9.644304049
12:31.8,1.4211E+12,1.1850857,-1.9044896,-9.245823,9.514029204
12:31.9,1.4211E+12,1.3163626,-1.924997,-9.41587,9.700362457
12:31.9,1.4211E+12,1.2665162,-1.8092875,-9.233549,9.493998719
12:31.9,1.4211E+12,1.1247611,-1.88024,-9.354347,9.607507366
12:31.9,1.4211E+12,1.1286529,-1.8327887,-9.341025,9.585808252
12:31.9,1.4211E+12,1.181044,-1.8006057,-9.299711,9.545767151
12:31.9,1.4211E+12,1.1581416,-1.997147,-9.365125,9.645488809
12:31.9,1.4211E+12,1.2659175,-1.8919158,-9.285341,9.560305957
12:32.0,1.4211E+12,1.1991563,-1.8871257,-9.370364,9.633428296
12:32.0,1.4211E+12,1.2799883,-1.9470012,-9.42081,9.704681591
12:32.0,1.4211E+12,1.1816428,-1.8974543,-9.356743,9.620044288
12:32.0,1.4211E+12,1.2584331,-1.8862276,-9.308693,9.580880638
12:32.0,1.4211E+12,1.2672647,-1.8586849,-9.287287,9.555855231
12:32.1,1.4211E+12,1.2022998,-1.843267,-9.384734,9.639314825
12:32.1,1.4211E+12,1.1617341,-1.8898201,-9.275761,9.537336539
12:32.1,1.4211E+12,1.1961626,-1.8628762,-9.157806,9.421598773
12:32.1,1.4211E+12,1.189726,-1.8452128,-9.191486,9.45006207
12:32.3,1.4211E+12,1.1220666,-1.8859282,-9.408834,9.661362009
12:32.3,1.4211E+12,1.1633807,-1.9199076,-9.494905,9.756675705
12:32.3,1.4211E+12,1.187331,-1.9935544,-9.236992,9.523971612
12:32.3,1.4211E+12,1.2497511,-1.9203566,-9.241781,9.521563072
12:32.3,1.4211E+12,1.169518,-1.7910255,-9.331295,9.573328108
12:32.3,1.4211E+12,1.0913805,-1.8190173,-9.3558445,9.593318594
12:32.3,1.4211E+12,1.0172845,-2.0070264,-9.327553,9.595116867
12:32.3,1.4211E+12,1.035846,-1.9386187,-9.340426,9.595560289
12:32.3,1.4211E+12,0.9966275,-1.8943107,-9.378897,9.620051369
12:32.3,1.4211E+12,1.0216255,-1.904789,-9.450598,9.694624405
12:32.3,1.4211E+12,1.0162368,-1.9038908,-9.272767,9.520595845
12:32.4,1.4211E+12,1.0577005,-1.9401155,-9.357491,9.614853941
12:32.4,1.4211E+12,1.0822494,-1.8899698,-9.470506,9.717702069
12:32.4,1.4211E+12,1.0976673,-1.8947598,-9.40135,9.652997981
12:32.4,1.4211E+12,1.1220666,-1.83698,-9.349708,9.594298758
12:32.4,1.4211E+12,1.2269984,-2.0806732,-9.230704,9.541520968
12:32.5,1.4211E+12,1.1575428,-1.8979033,-9.280701,9.543235998
12:32.5,1.4211E+12,1.2126284,-1.785038,-9.276509,9.524203249
12:32.5,1.4211E+12,1.3039384,-1.8363812,-9.320967,9.589211494
12:32.6,1.4211E+12,1.2570859,-1.801354,-9.428294,9.680798983
12:32.6,1.4211E+12,1.2702584,-1.7558486,-9.33384,9.582125539
12:32.6,1.4211E+12,1.2144246,-1.771566,-9.429042,9.670579416
12:32.6,1.4211E+12,1.3292358,-1.9044896,-9.400452,9.683101066
12:32.6,1.4211E+12,1.4078224,-1.8892213,-9.425599,9.715607935
12:32.6,1.4211E+12,1.2951068,-1.9324814,-9.4667635,9.748404852
12:32.6,1.4211E+12,1.201701,-1.883084,-9.449699,9.710144275
12:32.7,1.4211E+12,1.2840298,-1.7606387,-9.4049425,9.65409367
12:32.7,1.4211E+12,1.237776,-1.8785934,-9.475446,9.738854116
12:32.7,1.4211E+12,1.3519886,-1.8519489,-9.398506,9.674166782
12:32.7,1.4211E+12,1.4350657,-1.7036073,-9.32411,9.586486253
12:32.7,1.4211E+12,1.3611195,-1.7601897,-9.411079,9.670538869
12:32.8,1.4211E+12,1.3630655,-1.8425184,-9.268426,9.547593526
12:32.8,1.4211E+12,1.2454102,-1.9320323,-9.166339,9.450162223
12:32.8,1.4211E+12,1.3983921,-1.8631755,-9.336684,9.622920114
12:32.8,1.4211E+12,1.2894187,-1.936523,-9.352551,9.637579163
12:32.8,1.4211E+12,1.2192147,-1.8335371,-9.411229,9.665380182
12:32.9,1.4211E+12,1.2069402,-1.658551,-9.373807,9.595611171
12:32.9,1.4211E+12,1.1793975,-1.7227675,-9.471404,9.698783432
12:32.9,1.4211E+12,1.2335848,-1.7964144,-9.31483,9.566341729
12:32.9,1.4211E+12,1.250799,-1.7952168,-9.168734,9.426186114
12:32.9,1.4211E+12,1.3328284,-1.6531622,-9.251661,9.49223936
12:33.0,1.4211E+12,1.4714401,-1.5928377,-9.412277,9.658841868
12:33.0,1.4211E+12,1.5139518,-1.8276993,-9.579928,9.869526598
12:33.0,1.4211E+12,1.5383509,-1.7796493,-9.541458,9.827161131
12:33.0,1.4211E+12,1.607058,-1.8782941,-9.426947,9.745663337
12:33.0,1.4211E+12,1.629212,-1.7055533,-9.265432,9.560934784
12:33.1,1.4211E+12,1.6232245,-1.7661772,-9.368119,9.67036159
12:33.1,1.4211E+12,1.5793657,-1.8260527,-9.274863,9.583942203
12:33.1,1.4211E+12,1.7149837,-2.0511847,-9.163494,9.545582751
12:33.1,1.4211E+12,1.3326787,-1.7131875,-9.266181,9.516992921
12:33.2,1.4211E+12,1.1692185,-1.9053878,-9.632319,9.888333727
12:33.2,1.4211E+12,1.3172607,-1.6161891,-9.727073,9.948024533
12:33.2,1.4211E+12,1.5307169,-1.7274078,-9.604627,9.878051009
12:33.2,1.4211E+12,1.603765,-1.5688875,-9.291179,9.558215177
12:33.2,1.4211E+12,1.5257771,-1.56769,-9.1307125,9.389119152
12:33.2,1.4211E+12,1.5896943,-1.463806,-9.375903,9.621715701
12:33.3,1.4211E+12,1.5702347,-1.5934365,-9.469907,9.730560903
12:33.3,1.4211E+12,1.7378861,-1.4482384,-9.535022,9.799708521
12:33.3,1.4211E+12,1.8649718,-1.5459851,-9.459279,9.764535265
12:33.3,1.4211E+12,1.9239491,-1.7112415,-9.236543,9.588725369
12:33.3,1.4211E+12,1.8676661,-1.5958314,-9.182355,9.50528789
12:33.4,1.4211E+12,1.7515078,-1.627266,-9.156159,9.463140168
12:33.4,1.4211E+12,1.61095,-1.7600399,-9.377399,9.676182737
12:33.4,1.4211E+12,1.3314812,-1.6597486,-9.302405,9.542659293
12:33.4,1.4211E+12,1.4063256,-1.7175283,-9.370214,9.629567257
12:33.5,1.4211E+12,1.3468992,-1.7280066,-9.362131,9.615073641
12:33.5,1.4211E+12,1.2525952,-1.746568,-9.410331,9.652658911
12:33.5,1.4211E+12,1.162782,-1.95239,-9.312734,9.585974298
12:33.5,1.4211E+12,1.3093272,-1.8494041,-9.474248,9.741458228
12:33.5,1.4211E+12,1.2540921,-1.9923569,-9.556577,9.842276006
12:33.5,1.4211E+12,1.3543836,-1.9122734,-9.589957,9.872103107
12:33.6,1.4211E+12,1.3711487,-1.963018,-9.541608,9.837467746
12:33.6,1.4211E+12,1.5462844,-1.898951,-9.380243,9.694636099
12:33.6,1.4211E+12,1.775907,-1.7435743,-9.488468,9.809430259
12:33.6,1.4211E+12,1.6024177,-1.9172131,-9.394764,9.721370231
12:33.6,1.4211E+12,1.6247214,-1.8282981,-9.323811,9.639286547
12:33.7,1.4211E+12,1.273402,-1.8911673,-9.190738,9.469304694
12:33.7,1.4211E+12,0.9063652,-1.8793418,-9.39656,9.62542276
12:33.7,1.4211E+12,0.78347075,-1.88024,-9.528436,9.743727289
12:33.7,1.4211E+12,0.84634,-1.8390756,-9.385483,9.601342698
12:33.7,1.4211E+12,0.7056326,-1.6956738,-9.336085,9.515025493
12:33.8,1.4211E+12,0.8611592,-1.771117,-9.4253,9.628848876
12:33.8,1.4211E+12,1.0883867,-1.8321899,-9.567803,9.802262988
12:33.8,1.4211E+12,1.1258088,-1.8661693,-9.480984,9.728262482
12:33.9,1.4211E+12,1.3620176,-1.9335293,-9.718989,10.00261839
12:33.9,1.4211E+12,1.2482543,-1.7929715,-9.675729,9.919305282
12:33.9,1.4211E+12,1.2424164,-1.8764977,-9.36767,9.634214206
12:33.9,1.4211E+12,1.5290703,-1.9914588,-9.239387,9.574457492
12:33.9,1.4211E+12,1.4859599,-1.9898121,-9.1941805,9.523674925
12:33.9,1.4211E+12,1.470991,-1.9464024,-9.23774,9.554482567
12:33.9,1.4211E+12,1.5941849,-2.08696,-9.397308,9.757367738
12:34.0,1.4211E+12,1.7205222,-2.0767813,-9.372459,9.752753709
12:34.0,1.4211E+12,1.7027092,-1.9318826,-9.418564,9.76425813
12:34.0,1.4211E+12,1.6765137,-2.0606148,-9.065747,9.446936022
12:34.0,1.4211E+12,1.5606546,-2.135609,-9.118288,9.494190046
12:34.0,1.4211E+12,1.5850539,-2.0362158,-9.239237,9.592813508
12:34.1,1.4211E+12,1.5429913,-1.9405646,-9.471254,9.790365951
12:34.1,1.4211E+12,1.4656023,-1.9633173,-9.41557,9.729109073
12:34.1,1.4211E+12,1.3623171,-1.99565,-9.363329,9.670080494
12:34.1,1.4211E+12,1.5305672,-2.0389102,-9.315129,9.65771293
12:34.1,1.4211E+12,1.4852115,-2.0377126,-9.283395,9.619747843
12:34.2,1.4211E+12,1.4338683,-1.9444565,-9.312136,9.620434827
12:34.2,1.4211E+12,1.4434483,-2.0302281,-9.231303,9.561502194
12:34.2,1.4211E+12,1.6173866,-2.0748353,-9.258098,9.62461737
12:34.2,1.4211E+12,1.7006135,-2.072141,-9.370963,9.746835494
12:34.2,1.4211E+12,1.6389418,-1.9179616,-9.292975,9.629334934
12:34.3,1.4211E+12,1.5817608,-1.9899619,-9.239536,9.582846189
12:34.3,1.4211E+12,1.5910414,-1.9702029,-9.1500225,9.493999366
12:34.3,1.4211E+12,1.6555573,-2.103426,-9.221424,9.60207954
12:34.3,1.4211E+12,1.5187417,-2.068249,-9.236543,9.586342205
12:34.3,1.4211E+12,1.5862514,-1.9621197,-9.260193,9.597774826
12:34.4,1.4211E+12,1.6584014,-1.9832258,-9.385483,9.735028039
12:34.4,1.4211E+12,1.4879059,-1.8983524,-9.304352,9.611897416
12:34.4,1.4211E+12,1.6733702,-2.009571,-9.162447,9.52832506
12:34.4,1.4211E+12,1.5331119,-2.055226,-9.159752,9.511858005
12:34.4,1.4211E+12,1.6503181,-2.078877,-9.115145,9.493742559
12:34.6,1.4211E+12,1.7458196,-1.9613713,-9.275162,9.639683272
12:34.6,1.4211E+12,1.7018111,-1.8946102,-9.397308,9.736277855
12:34.6,1.4211E+12,1.7371376,-1.8702109,-9.42515,9.764670418
12:34.6,1.4211E+12,1.5985259,-1.7745597,-9.412726,9.711012199
12:34.6,1.4211E+12,1.4162049,-1.9972966,-9.292077,9.609241645
12:34.6,1.4211E+12,1.4837146,-1.9020946,-9.326955,9.633870585
12:34.6,1.4211E+12,1.4754817,-1.9305354,-9.283844,9.596550036
12:34.6,1.4211E+12,1.5492783,-1.9261944,-9.312136,9.634644
12:34.6,1.4211E+12,1.647025,-1.8285974,-9.355096,9.673380018
12:34.6,1.4211E+12,1.6416363,-2.0013382,-9.462124,9.809796885
12:34.7,1.4211E+12,1.6998651,-1.9968475,-9.289832,9.65287107
12:34.7,1.4211E+12,1.7646804,-2.1272264,-9.325308,9.726281837
12:34.7,1.4211E+12,1.737437,-1.9721489,-9.225316,9.592419607
12:34.7,1.4211E+12,1.8043479,-1.9818786,-9.265882,9.645728763
12:34.8,1.4211E+12,1.6745677,-1.9101777,-9.339678,9.678974169
12:34.8,1.4211E+12,1.5774198,-1.9124231,-9.301357,9.626050975
12:34.8,1.4211E+12,1.5998731,-1.9574794,-9.217682,9.558084588
12:34.8,1.4211E+12,1.5654446,-1.7859361,-9.328601,9.626161289
12:34.8,1.4211E+12,1.7260606,-1.6498691,-9.474697,9.770938363
12:34.8,1.4211E+12,1.7027092,-1.7040564,-9.490415,9.791373944
12:34.9,1.4211E+12,1.6480728,-1.7962646,-9.421108,9.731391803
12:34.9,1.4211E+12,1.5750247,-1.8529967,-9.361084,9.671824711
12:34.9,1.4211E+12,1.7967137,-1.8038988,-9.367221,9.707062391
12:34.9,1.4211E+12,1.5798148,-1.8428178,-9.297167,9.608803592
12:34.9,1.4211E+12,1.4212945,-1.7031583,-9.258547,9.520583953
12:35.0,1.4211E+12,1.3322296,-1.834585,-9.421408,9.690380103
12:35.0,1.4211E+12,1.2780423,-1.9019449,-9.49221,9.764877736
12:35.0,1.4211E+12,1.3183086,-1.9696041,-9.39147,9.685916923
12:35.0,1.4211E+12,1.348845,-1.9808308,-9.3437195,9.646147811
12:35.0,1.4211E+12,1.1990067,-1.909579,-9.160501,9.433922175
12:35.2,1.4211E+12,1.0470726,-1.9600241,-9.136849,9.403194412
12:35.2,1.4211E+12,1.093027,-1.9103274,-9.273516,9.531115244
12:35.2,1.4211E+12,1.081501,-2.0534298,-9.412577,9.694473897
12:35.2,1.4211E+12,1.1445199,-2.0728893,-9.368269,9.662880518
12:35.2,1.4211E+12,1.1526031,-1.9907103,-9.3839855,9.661811697
12:35.2,1.4211E+12,1.1305989,-1.9809805,-9.373807,9.647320627
12:35.2,1.4211E+12,1.0080038,-1.9314336,-9.474398,9.72166266
12:35.2,1.4211E+12,1.2160711,-2.016307,-9.34357,9.635695262
12:35.2,1.4211E+12,1.1584411,-2.0194504,-9.3558445,9.641161341
12:35.2,1.4211E+12,1.2057426,-1.9758911,-9.432335,9.71220389
12:35.3,1.4211E+12,1.2497511,-2.0230432,-9.470057,9.764044305
12:35.3,1.4211E+12,1.1593392,-2.0248394,-9.472901,9.756018416
12:35.3,1.4211E+12,1.1082953,-1.9898121,-9.495055,9.764411919
12:35.3,1.4211E+12,1.0912308,-1.9691551,-9.499695,9.762815248
12:35.3,1.4211E+12,1.0904824,-1.8922151,-9.386681,9.637396435
12:35.4,1.4211E+12,1.1241623,-2.0143611,-9.255104,9.538256736
12:35.4,1.4211E+12,1.2669654,-2.0588186,-9.148675,9.462673492
12:35.5,1.4211E+12,1.0665321,-2.081272,-9.174421,9.467797238
12:35.5,1.4211E+12,1.0550061,-1.9907103,-9.340277,9.608160064
12:35.5,1.4211E+12,1.2650194,-2.058669,-9.393117,9.698919482
12:35.5,1.4211E+12,1.22146,-2.0550764,-9.276659,9.579754994
12:35.5,1.4211E+12,1.2159215,-1.9561322,-9.347462,9.627043374
12:35.5,1.4211E+12,1.2096345,-1.9660116,-9.215735,9.500430981
12:35.5,1.4211E+12,1.3207036,-2.0806732,-9.239536,9.562556377
12:35.5,1.4211E+12,1.1895763,-2.1993763,-9.292826,9.623355078
12:35.6,1.4211E+12,1.2862751,-2.0242405,-9.320667,9.624286288
12:35.6,1.4211E+12,1.3168117,-2.0667522,-9.522148,9.832434096
12:35.6,1.4211E+12,1.4645544,-2.043251,-9.372161,9.703463096
12:35.6,1.4211E+12,1.3286371,-1.9923569,-9.328451,9.630927298
12:35.7,1.4211E+12,1.4560221,-2.0191512,-9.278605,9.606741522
12:35.7,1.4211E+12,1.4003379,-2.0124152,-9.384135,9.699110829
12:35.8,1.4211E+12,1.5509248,-2.047592,-9.267977,9.617348824
12:35.8,1.4211E+12,1.6771125,-1.8964064,-9.41557,9.749975487
12:35.8,1.4211E+12,1.5187417,-2.0871098,-9.372609,9.721543249
12:35.8,1.4211E+12,1.5548167,-1.8857785,-9.331744,9.64650515
12:35.8,1.4211E+12,1.5338603,-2.0249891,-9.342671,9.681880483
12:35.8,1.4211E+12,1.7301022,-1.9872675,-9.231902,9.600546874
12:35.9,1.4211E+12,1.6227754,-1.9446062,-9.30046,9.639162281
12:35.9,1.4211E+12,1.6371455,-1.99086,-9.335037,9.684352571
12:35.9,1.4211E+12,1.5804135,-2.0263362,-9.220526,9.571930053
12:35.9,1.4211E+12,1.7896783,-1.9702029,-9.359287,9.730411144
12:35.9,1.4211E+12,1.7034576,-2.019301,-9.30989,9.677468478
12:36.0,1.4211E+12,1.6780106,-1.9327807,-9.33414,9.678715325
12:36.0,1.4211E+12,1.8083894,-1.8755996,-9.390872,9.745595056
12:36.0,1.4211E+12,1.8112335,-1.7934206,-9.279653,9.623350978
12:36.0,1.4211E+12,1.963018,-1.8559904,-9.41063,9.790714838
12:36.0,1.4211E+12,1.8781444,-1.8203645,-9.498498,9.852036214
12:36.1,1.4211E+12,1.8080901,-2.0410056,-9.339678,9.729567247
12:36.1,1.4211E+12,2.0733385,-2.0401075,-9.3116865,9.755422934
12:36.1,1.4211E+12,1.9830762,-2.003434,-9.150621,9.574978
12:36.1,1.4211E+12,1.9699036,-2.028432,-9.119636,9.547922148
12:36.1,1.4211E+12,1.8684146,-2.0161574,-8.962313,9.374375611
12:36.2,1.4211E+12,1.9043399,-2.193838,-9.0165,9.472946103
12:36.2,1.4211E+12,2.054328,-2.2912853,-9.092991,9.599621721
12:36.2,1.4211E+12,1.8468595,-2.2718258,-9.159602,9.616152623
12:36.2,1.4211E+12,1.8967057,-2.1305196,-9.000034,9.441250885
12:36.3,1.4211E+12,1.712439,-2.1884491,-9.064401,9.48077646
12:36.3,1.4211E+12,1.719624,-2.0960913,-9.358838,9.743641729
12:36.3,1.4211E+12,1.7786014,-2.1665945,-9.503587,9.908366189
12:36.3,1.4211E+12,1.8796413,-2.1823118,-9.40135,9.832645526
12:36.3,1.4211E+12,1.8074913,-2.3019133,-9.331894,9.780085647
12:36.3,1.4211E+12,1.7091458,-2.2424867,-9.182954,9.606069442
12:36.6,1.4211E+12,1.4808705,-2.0619621,-9.0093155,9.360151223
12:36.6,1.4211E+12,1.5419436,-2.119293,-9.101823,9.471651113
12:36.6,1.4211E+12,1.6416363,-2.064357,-9.263187,9.631364024
12:36.6,1.4211E+12,1.6263679,-2.1710851,-9.375005,9.759580002
12:36.6,1.4211E+12,1.5105089,-2.3486161,-9.360635,9.768271205
12:36.6,1.4211E+12,1.4212945,-2.1915925,-9.370963,9.728211721
12:36.6,1.4211E+12,1.4099181,-2.2405407,-9.0269785,9.407137318
12:36.6,1.4211E+12,1.3654605,-2.1270766,-9.105266,9.44959291
12:36.6,1.4211E+12,1.3784834,-2.142345,-9.2449255,9.589499783
12:36.6,1.4211E+12,1.2798386,-2.2357507,-9.328451,9.677632257
12:36.6,1.4211E+12,1.4358143,-2.1420455,-9.092691,9.451293628
12:36.6,1.4211E+12,1.6274158,-2.1689897,-8.853639,9.259585414
12:36.7,1.4211E+12,1.5389497,-2.0782783,-8.738678,9.113292493
12:36.7,1.4211E+12,1.5721806,-1.9661614,-9.620943,9.944852271
12:36.7,1.4211E+12,1.3657598,-2.0501368,-9.283994,9.605254048
12:36.7,1.4211E+12,1.3296849,-1.9582279,-9.16574,9.466441158
12:36.7,1.4211E+12,1.323398,-2.0501368,-9.5037365,9.812005433
12:36.7,1.4211E+12,1.1816428,-1.7808467,-9.513766,9.750868586
12:36.8,1.4211E+12,1.0011182,-1.5988252,-9.354347,9.542656206
12:36.8,1.4211E+12,1.0446776,-1.6136444,-9.571096,9.762227112
12:36.8,1.4211E+12,1.1120375,-1.6443306,-9.553583,9.757632841
12:36.8,1.4211E+12,1.3123211,-1.7727635,-9.422007,9.676729458
12:36.8,1.4211E+12,1.3063334,-1.6012203,-9.426048,9.649911621
12:36.8,1.4211E+12,1.3287867,-1.8166223,-9.520502,9.782931514
12:36.8,1.4211E+12,1.5420932,-1.9784359,-9.384135,9.713611571
12:36.9,1.4211E+12,1.572929,-1.9648142,-9.519753,9.846842015
12:36.9,1.4211E+12,1.5172448,-1.8679656,-9.515113,9.814718675
12:36.9,1.4211E+12,1.3885126,-1.9821781,-9.543554,9.845629498
12:36.9,1.4211E+12,1.4572197,-2.0481908,-9.122929,9.462896404
12:36.9,1.4211E+12,1.4682966,-2.036066,-8.993748,9.337503025
12:37.0,1.4211E+12,1.5280224,-1.9806812,-9.26184,9.593728715
12:37.0,1.4211E+12,1.3994398,-1.757196,-9.313782,9.580850937
12:37.0,1.4211E+12,1.5203884,-1.7862355,-9.502689,9.787916856
12:37.1,1.4211E+12,1.49554,-1.7794995,-9.515263,9.795074697
12:37.1,1.4211E+12,1.4421011,-1.833088,-9.595496,9.874887882
12:37.1,1.4211E+12,1.2801379,-1.926943,-9.452992,9.731953561
12:37.1,1.4211E+12,1.4407539,-2.0184028,-9.239985,9.566976767
12:37.1,1.4211E+12,1.4313235,-1.834585,-9.066496,9.360327922
12:37.1,1.4211E+12,1.4365627,-1.8296453,-9.147778,9.438917133
12:37.1,1.4211E+12,1.4844631,-1.857637,-9.361532,9.658816041
12:37.2,1.4211E+12,1.3546829,-1.8970052,-9.320817,9.607883432
12:37.2,1.4211E+12,1.2648697,-1.9911593,-9.485025,9.773960813
12:37.2,1.4211E+12,1.3328284,-2.0706441,-9.448352,9.763982489
12:37.2,1.4211E+12,1.4130615,-1.8883232,-9.303004,9.597311641
12:37.2,1.4211E+12,1.4367124,-1.9673588,-9.250913,9.566296802
12:37.3,1.4211E+12,1.4626085,-1.8886226,-9.329649,9.630600678
12:37.3,1.4211E+12,1.5221846,-1.8836828,-9.297615,9.607858842
12:37.3,1.4211E+12,1.4085709,-1.8799406,-9.363329,9.653506026
12:37.3,1.4211E+12,1.4629079,-2.032623,-9.3309965,9.661218943
12:37.3,1.4211E+12,1.391207,-1.9188597,-9.358389,9.653855403
12:37.4,1.4211E+12,1.4085709,-1.875001,-9.370664,9.659660684
12:37.4,1.4211E+12,1.3865666,-2.0170555,-9.4314375,9.743874647
12:37.4,1.4211E+12,1.3832735,-1.8693128,-9.238788,9.526960671
12:37.4,1.4211E+12,1.4156063,-1.9601738,-9.221274,9.533001453
12:37.4,1.4211E+12,1.3395643,-2.0243902,-9.271569,9.584079503
12:37.5,1.4211E+12,1.3862672,-1.848506,-9.3292,9.611070899
12:37.5,1.4211E+12,1.479673,-1.9814296,-9.311986,9.634758882
12:37.5,1.4211E+12,1.4124627,-1.9712508,-9.174122,9.489225209
12:37.5,1.4211E+12,1.5347584,-1.997147,-9.315129,9.649648065
12:37.5,1.4211E+12,1.4518309,-1.9974463,-9.36752,9.687519581
12:37.6,1.4211E+12,1.4790742,-1.9616706,-9.265882,9.586051391
12:37.6,1.4211E+12,1.6094531,-1.9935544,-9.340277,9.685317386
12:37.6,1.4211E+12,1.5528708,-1.934577,-9.351503,9.674947248
12:37.6,1.4211E+12,1.3386662,-1.940864,-9.314231,9.608011209
12:37.6,1.4211E+12,1.6160394,-1.9901116,-9.356443,9.701296467
12:37.7,1.4211E+12,1.5184424,-1.9652632,-9.2802515,9.606820216
12:37.7,1.4211E+12,1.5039226,-1.993255,-9.304352,9.633577467
12:37.7,1.4211E+12,1.6530125,-1.9106269,-9.30959,9.646315952
12:37.7,1.4211E+12,1.5551162,-1.986968,-9.312584,9.648349547
12:37.7,1.4211E+12,1.7043557,-2.0865111,-9.404344,9.782639879
12:37.8,1.4211E+12,1.633553,-2.0233424,-9.280401,9.637855186
12:37.8,1.4211E+12,1.6613951,-2.0742366,-9.370963,9.74051532
12:37.8,1.4211E+12,1.493594,-2.0553758,-9.342971,9.682277615
12:37.8,1.4211E+12,1.5290703,-2.142345,-9.387728,9.749724872
12:37.8,1.4211E+12,1.533561,-1.8019528,-9.337732,9.63286469
12:37.9,1.4211E+12,1.4188994,-2.011517,-9.223669,9.54649391
12:37.9,1.4211E+12,1.719624,-2.0408561,-9.448502,9.818166344
12:37.9,1.4211E+12,1.6892372,-2.046544,-9.342522,9.712084327
12:37.9,1.4211E+12,1.4699433,-2.1302202,-9.185798,9.543450964
12:37.9,1.4211E+12,1.5432907,-2.098037,-9.26648,9.625547103
12:38.0,1.4211E+12,1.5461348,-1.9217038,-9.18505,9.510448035
12:38.0,1.4211E+12,1.4362633,-2.0215461,-9.254505,9.580989703
12:38.1,1.4211E+12,1.5688875,-1.9854712,-9.316028,9.653594231
12:38.1,1.4211E+12,1.5250287,-2.0320244,-9.22307,9.566601064
12:38.1,1.4211E+12,1.6161891,-1.9381696,-9.216784,9.55602825
12:38.1,1.4211E+12,1.5175443,-1.968257,-9.304052,9.630283482
12:38.1,1.4211E+12,1.5064673,-1.868714,-9.2979145,9.602746992
12:38.1,1.4211E+12,1.5385007,-1.9318826,-9.143287,9.470947785
12:38.1,1.4211E+12,1.4763799,-2.1299207,-9.269923,9.625369199
12:38.1,1.4211E+12,1.4371614,-1.9544857,-9.245523,9.558511536
12:38.2,1.4211E+12,1.5052698,-2.0621119,-9.344618,9.687106287
12:38.2,1.4211E+12,1.4359639,-1.9022442,-9.251661,9.553729982
12:38.2,1.4211E+12,1.606609,-2.045646,-9.178014,9.539486413
12:38.2,1.4211E+12,1.5193405,-2.0755837,-9.221125,9.573170296
12:38.3,1.4211E+12,1.5106586,-1.9670595,-9.31468,9.639225902
12:38.3,1.4211E+12,1.5247293,-1.9475999,-9.293425,9.616948219
12:38.3,1.4211E+12,1.4856606,-2.1532722,-9.235045,9.598428243
12:38.3,1.4211E+12,1.4900016,-2.0481908,-9.364975,9.701440464
12:38.3,1.4211E+12,1.4708414,-1.9221529,-9.227561,9.539702731
12:38.4,1.4211E+12,1.4284794,-2.0116668,-9.260642,9.583676067
12:38.4,1.4211E+12,1.526825,-1.9761904,-9.293724,9.623400068
12:38.4,1.4211E+12,1.515748,-1.9802321,-9.284143,9.613226431
12:38.4,1.4211E+12,1.6203804,-2.080823,-9.277857,9.645417954
12:38.4,1.4211E+12,1.4675483,-2.051035,-9.262289,9.599502076
12:38.4,1.4211E+12,1.6295114,-2.03412,-9.3613825,9.717429387
12:38.5,1.4211E+12,1.5200889,-2.0103195,-9.315129,9.650061297
12:38.5,1.4211E+12,1.4615607,-2.085014,-9.334439,9.675494535
12:38.5,1.4211E+12,1.4730867,-1.9493963,-9.442514,9.753522492
12:38.5,1.4211E+12,1.5120058,-2.0872595,-9.271121,9.622707434
12:38.5,1.4211E+12,1.4760804,-2.0501368,-9.26184,9.600185125
12:38.6,1.4211E+12,1.4394068,-2.0872595,-9.217532,9.559887046
12:38.6,1.4211E+12,1.4142591,-2.1016297,-9.170979,9.514401296
12:38.6,1.4211E+12,1.4908997,-2.0339704,-9.33429,9.668959991
12:38.6,1.4211E+12,1.5504757,-1.9721489,-9.33384,9.665087445
12:38.6,1.4211E+12,1.583557,-2.0680993,-9.263038,9.622294969
12:38.7,1.4211E+12,1.5151492,-2.048041,-9.218131,9.563685909
12:38.7,1.4211E+12,1.4352155,-2.1278253,-9.240135,9.589972829
12:38.7,1.4211E+12,1.4554235,-2.026486,-9.231303,9.562523629
12:38.7,1.4211E+12,1.3904586,-2.0537293,-9.283545,9.609130394
12:38.7,1.4211E+12,1.4858103,-2.0866609,-9.251961,9.600029599
12:38.8,1.4211E+12,1.4563216,-2.210603,-9.3533,9.720692317
12:38.8,1.4211E+12,1.4337186,-2.0592678,-9.266031,9.599763715
12:38.8,1.4211E+12,1.4036311,-2.0098705,-9.24717,9.566604032
12:38.8,1.4211E+12,1.4608122,-2.1174967,-9.192534,9.545703007
12:38.8,1.4211E+12,1.3510904,-2.1275258,-9.251961,9.589087216
12:38.9,1.4211E+12,1.4525794,-2.0143611,-9.341774,9.666249481
12:38.9,1.4211E+12,1.4165044,-1.9794836,-9.271271,9.585473697
12:38.9,1.4211E+12,1.6021184,-2.015858,-9.307795,9.65740724
12:38.9,1.4211E+12,1.5353572,-1.9531385,-9.276509,9.603420795
12:38.9,1.4211E+12,1.6142431,-2.0198996,-9.298813,9.651616361
12:39.0,1.4211E+12,1.5581099,-1.9465522,-9.219927,9.551116469
12:39.0,1.4211E+12,1.4464421,-1.8673668,-9.162746,9.462302456
12:39.1,1.4211E+12,1.499432,-1.9607725,-9.126521,9.454433388
12:39.1,1.4211E+12,1.4823674,-1.9514918,-9.270522,9.588968219
12:39.1,1.4211E+12,1.5033238,-2.0664527,-9.2184305,9.566068685
12:39.1,1.4211E+12,1.4831158,-2.0722907,-9.202264,9.548595915
12:39.1,1.4211E+12,1.531166,-2.0496876,-9.265882,9.612609314
12:39.1,1.4211E+12,1.5834073,-2.039359,-9.281749,9.63415945
12:39.1,1.4211E+12,1.5600559,-2.0390596,-9.339528,9.685985842
12:39.1,1.4211E+12,1.5946339,-2.0236418,-9.201216,9.555122149
12:39.2,1.4211E+12,1.6247214,-1.9380199,-9.246572,9.586174133
12:39.2,1.4211E+12,1.5087126,-2.0929477,-9.320368,9.670879145
12:39.2,1.4211E+12,1.5462844,-2.0133133,-9.32905,9.668278016
12:39.2,1.4211E+12,1.5052698,-2.0881577,-9.253158,9.604539173
12:39.2,1.4211E+12,1.5820601,-2.049987,-9.285641,9.639942409
12:39.3,1.4211E+12,1.6097525,-1.9017951,-9.242081,9.572052493
12:39.3,1.4211E+12,1.5832576,-1.9705024,-9.234447,9.574162926
12:39.4,1.4211E+12,1.5313156,-2.0766315,-9.27591,9.628075206
12:39.4,1.4211E+12,1.4495856,-1.8494041,-9.294472,9.586907932
12:39.4,1.4211E+12,1.5829582,-1.8839822,-9.29522,9.615417851
12:39.4,1.4211E+12,1.5822098,-2.13037,-9.258697,9.631476228
12:39.4,1.4211E+12,1.4211447,-2.0483406,-9.371562,9.697501008
12:39.4,1.4211E+12,1.5245796,-2.0073256,-9.169782,9.509921185
12:39.4,1.4211E+12,1.5007792,-2.0056791,-9.379346,9.708100651
12:39.4,1.4211E+12,1.421444,-2.0859122,-9.329799,9.665230578
12:39.5,1.4211E+12,1.4904506,-2.022145,-9.253457,9.588377331
12:39.5,1.4211E+12,1.5402969,-2.145189,-9.23325,9.603502275
12:39.5,1.4211E+12,1.4528787,-2.0640578,-9.3751545,9.709001649
12:39.5,1.4211E+12,1.4644047,-2.0698957,-9.385034,9.721512872
12:39.5,1.4211E+12,1.4623091,-2.0053797,-9.3293495,9.653841605
12:39.6,1.4211E+12,1.5376025,-2.038461,-9.260492,9.606053132
12:39.6,1.4211E+12,1.5461348,-2.0333717,-9.257349,9.603314209
12:39.6,1.4211E+12,1.5814613,-2.033671,-9.205856,9.559530442
12:39.7,1.4211E+12,1.685046,-2.065405,-9.295819,9.670446149
12:39.7,1.4211E+12,1.6202307,-1.9914588,-9.388776,9.733456244
12:39.7,1.4211E+12,1.5838563,-2.0269349,-9.33384,9.681819819
12:39.7,1.4211E+12,1.5028747,-2.018702,-9.29058,9.62541775
12:39.7,1.4211E+12,1.6082556,-1.906735,-9.244776,9.575385513
12:39.7,1.4211E+12,1.6350499,-1.9779868,-9.385183,9.729721471
12:39.7,1.4211E+12,1.5257771,-2.0865111,-9.323362,9.675050559
12:39.8,1.4211E+12,1.648971,-2.0100203,-9.347611,9.702428478
12:39.8,1.4211E+12,1.5715818,-2.2065613,-9.241482,9.630356778
12:39.8,1.4211E+12,1.5275733,-1.9886147,-9.26184,9.595298265
12:39.8,1.4211E+12,1.5208374,-1.9516416,-9.182355,9.509863021
12:39.8,1.4211E+12,1.5013778,-2.0408561,-9.312734,9.651230153
12:39.9,1.4211E+12,1.4153068,-1.955234,-9.245673,9.55554826
12:39.9,1.4211E+12,1.5422429,-1.9411633,-9.305698,9.630298198
12:39.9,1.4211E+12,1.4822177,-2.0218456,-9.207204,9.542401922
12:39.9,1.4211E+12,1.5144008,-2.1246817,-9.263487,9.62392194
12:39.9,1.4211E+12,1.5202386,-1.9963984,-9.19942,9.535515734
12:40.0,1.4211E+12,1.5368541,-2.1246817,-9.146729,9.515190185
12:40.0,1.4211E+12,1.4510825,-2.1281245,-9.407786,9.754024386
12:40.1,1.4211E+12,1.5188915,-2.1155508,-9.360785,9.716320414
12:40.1,1.4211E+12,1.4983841,-2.1641996,-9.374406,9.736960649
12:40.1,1.4211E+12,1.5377523,-2.0568726,-9.2697735,9.618945252
12:40.1,1.4211E+12,1.510958,-1.993255,-9.26199,9.593774978
12:40.1,1.4211E+12,1.4302757,-2.0901036,-9.282796,9.62208518
