time,time_milisec,ax,ay,az,resultant
55:09.0,1.42136E+12,-1.0488689,2.689607,9.452543,9.883556088
55:09.0,1.42136E+12,-1.1243119,2.8916867,9.57918,10.06909225
55:09.0,1.42136E+12,-1.2476555,3.0048513,9.860894,10.38378573
55:09.1,1.42136E+12,-1.2045451,3.0085936,9.667497,10.19622786
55:09.1,1.42136E+12,-1.1201206,3.138673,9.472602,10.04171933
55:09.1,1.42136E+12,-1.10605,3.206033,9.433084,10.02422406
55:09.1,1.42136E+12,-1.1103909,3.2102244,9.29552,9.896726768
55:09.1,1.42136E+12,-1.2346326,3.3432975,9.274863,9.936047479
55:09.2,1.42136E+12,-1.3219011,3.429668,9.249266,9.952837115
55:09.2,1.42136E+12,-1.1587404,3.1808853,9.118887,9.727014482
55:09.2,1.42136E+12,-1.1300001,3.1918125,9.024284,9.638582311
55:09.2,1.42136E+12,-1.201252,3.1573842,9.034014,9.644972281
55:09.2,1.42136E+12,-1.1668236,3.3302746,9.169183,9.824770894
55:09.3,1.42136E+12,-1.1091934,3.3775764,9.298663,9.955072372
55:09.3,1.42136E+12,-1.1746074,3.1124775,9.304651,9.88148516
55:09.3,1.42136E+12,-1.0006691,3.1388228,9.566756,10.11812075
55:09.3,1.42136E+12,-1.0361453,3.1997461,9.571845,10.1455502
55:09.3,1.42136E+12,-1.1002121,3.2260914,9.626482,10.21211477
55:09.4,1.42136E+12,-1.1428734,3.3852105,9.701775,10.338774
55:09.4,1.42136E+12,-1.176703,3.20274,9.670939,10.25520524
55:09.4,1.42136E+12,-1.248853,3.0404773,9.453442,10.0085814
55:09.4,1.42136E+12,-1.2319381,3.0310469,9.4860735,10.03446597
55:09.4,1.42136E+12,-1.1596385,3.1579828,9.441167,10.02263694
55:09.5,1.42136E+12,-1.1831397,3.206931,9.327404,9.93401688
55:09.5,1.42136E+12,-0.9898915,3.2133677,9.464369,10.04389853
55:09.5,1.42136E+12,-1.0961705,3.1922617,9.314381,9.907058995
55:09.5,1.42136E+12,-1.0488689,3.242108,9.165291,9.778238562
55:09.5,1.42136E+12,-0.9837543,3.1494508,9.124725,9.702959301
55:09.6,1.42136E+12,-1.1288027,3.2895594,9.161249,9.799177507
55:09.6,1.42136E+12,-1.1859838,3.306025,9.3630295,10.00013401
55:09.6,1.42136E+12,-1.1557466,3.325784,9.4012,10.03888195
55:09.6,1.42136E+12,-1.108894,3.235821,9.557026,10.15071078
55:09.6,1.42136E+12,-1.1253598,3.219505,9.506282,10.09955665
55:09.7,1.42136E+12,-1.1490107,3.3718882,9.439072,10.08890162
55:09.7,1.42136E+12,-1.1138338,3.2760873,9.427995,10.04293102
55:09.7,1.42136E+12,-0.99468154,3.19301,9.395961,9.973404
55:09.7,1.42136E+12,-1.065185,3.131488,9.375304,9.941688049
55:09.7,1.42136E+12,-0.88196594,3.094964,9.419163,9.953757969
55:09.8,1.42136E+12,-0.9744736,3.0832882,9.349708,9.893093783
55:09.8,1.42136E+12,-1.0265652,3.118615,9.323662,9.884850465
55:09.8,1.42136E+12,-0.81789917,3.1596296,9.3928175,9.943703478
55:09.8,1.42136E+12,-0.94303894,3.194058,9.445658,10.01557707
55:09.8,1.42136E+12,-0.8640033,3.1244526,9.428294,9.970026755
55:09.9,1.42136E+12,-0.8322693,3.0307474,9.288934,9.806242749
55:09.9,1.42136E+12,-0.8490344,3.069517,9.197923,9.733682835
55:09.9,1.42136E+12,-0.9485774,3.1187644,9.226214,9.785168125
55:09.9,1.42136E+12,-0.92941725,3.2287858,9.342223,9.928041335
55:09.9,1.42136E+12,-0.84768724,3.170407,9.480236,10.03219462
55:10.0,1.42136E+12,-0.9261241,3.0741572,9.473499,10.0027662
55:10.0,1.42136E+12,-0.9976753,3.0879285,9.392518,9.937306114
55:10.0,1.42136E+12,-0.86355424,3.27489,9.427096,10.01702398
55:10.0,1.42136E+12,-0.9349558,3.2123199,9.494756,10.06695252
55:10.0,1.42136E+12,-0.98255676,3.1009514,9.428294,9.973667586
55:10.1,1.42136E+12,-0.94932586,3.1043944,9.45419,9.99600884
55:10.1,1.42136E+12,-1.074765,3.2142658,9.470057,10.05826049
55:10.1,1.42136E+12,-0.9940828,3.0463152,9.537566,10.06148111
55:10.1,1.42136E+12,-0.7911049,3.0768516,9.397907,9.9203588
55:10.1,1.42136E+12,-0.8602611,3.0620325,9.3928175,9.916708768
55:10.2,1.42136E+12,-0.8919951,3.016078,9.452244,9.961791927
55:10.2,1.42136E+12,-0.91863966,3.1082864,9.360635,9.905898787
55:10.2,1.42136E+12,-0.9333092,3.056494,9.5175085,10.03973056
55:10.2,1.42136E+12,-0.8240364,3.210823,9.413475,9.980076748
55:10.2,1.42136E+12,-0.8605605,3.1620245,9.472901,10.02371272
55:10.3,1.42136E+12,-0.7658075,3.0650263,9.368419,9.886764987
55:10.3,1.42136E+12,-0.99183744,3.1109807,9.364527,9.917474898
55:10.3,1.42136E+12,-0.95621157,3.2244446,9.354946,9.941146725
55:10.3,1.42136E+12,-1.0157876,3.2078292,9.488917,10.06784676
55:10.3,1.42136E+12,-0.93600357,3.2006443,9.447903,10.01913658
55:10.4,1.42136E+12,-1.0006691,2.9847932,9.51167,10.01909154
55:10.4,1.42136E+12,-0.9738748,3.0999038,9.441766,9.985228134
55:10.4,1.42136E+12,-0.95636123,3.2799792,9.520502,10.1149814
55:10.4,1.42136E+12,-0.96160036,3.065176,9.411079,9.94426403
55:10.4,1.42136E+12,-0.93450665,3.1347811,9.4494,9.99956577
55:10.5,1.42136E+12,-0.8716374,3.1298416,9.616452,10.15045857
55:10.5,1.42136E+12,-0.79963714,3.1952555,9.539962,10.09256916
55:10.5,1.42136E+12,-0.84080154,2.9521608,9.4612255,9.946707424
55:10.5,1.42136E+12,-0.88855225,2.9353957,9.336235,9.827072656
55:10.5,1.42136E+12,-0.8893007,3.0145812,9.320518,9.836188862
55:10.6,1.42136E+12,-0.9659413,2.9668305,9.279353,9.789868125
55:10.6,1.42136E+12,-0.8930429,2.9797037,9.422905,9.923069001
55:10.6,1.42136E+12,-0.7994875,3.1142738,9.426348,9.959614359
55:10.6,1.42136E+12,-0.92043597,3.201243,9.612411,10.17318064
55:10.6,1.42136E+12,-0.90022796,3.19301,9.461824,10.02655657
55:10.7,1.42136E+12,-0.8547226,3.201243,9.397758,9.964756038
55:10.7,1.42136E+12,-0.9443861,2.911296,9.469159,9.951506503
55:10.7,1.42136E+12,-0.92118436,2.9936247,9.412427,9.919886668
55:10.7,1.42136E+12,-0.90756273,3.0451176,9.381591,9.905082584
55:10.7,1.42136E+12,-0.9187894,3.0067973,9.3911705,9.903488644
55:10.8,1.42136E+12,-0.94079363,3.090174,9.414672,9.9534073
55:10.8,1.42136E+12,-0.9672885,3.1109807,9.4491005,9.994966144
55:10.8,1.42136E+12,-0.9395961,3.1269975,9.528436,10.07234068
55:10.8,1.42136E+12,-0.9207353,3.1380744,9.445358,9.995501597
55:10.8,1.42136E+12,-0.92807007,3.1609766,9.354796,9.917927975
55:10.9,1.42136E+12,-0.97731763,3.1624737,9.350156,9.91876035
55:10.9,1.42136E+12,-1.0353969,3.1657667,9.4976,10.06471715
55:10.9,1.42136E+12,-0.9602531,3.1737003,9.558823,10.11758651
55:10.9,1.42136E+12,-0.920885,3.1298416,9.442964,9.990670985
55:10.9,1.42136E+12,-0.9789642,3.0047016,9.31992,9.841113322
55:11.0,1.42136E+12,-0.9446855,3.2003448,9.293425,9.874329636
55:11.0,1.42136E+12,-1.0062076,3.1114297,9.42515,9.976317008
55:11.0,1.42136E+12,-0.9020242,3.01024,9.333241,9.848074943
55:11.0,1.42136E+12,-0.90561676,3.2157629,9.475595,10.04729682
55:11.0,1.42136E+12,-0.9131012,3.2591724,9.519005,10.10284191
55:11.1,1.42136E+12,-1.0044113,3.1213093,9.466165,10.01796854
55:11.1,1.42136E+12,-0.9671388,2.9957204,9.517209,10.0243187
55:11.1,1.42136E+12,-0.98570025,3.1837294,9.446556,10.01724304
55:11.1,1.42136E+12,-1.060844,3.1115794,9.436377,9.992623642
55:11.1,1.42136E+12,-0.89962924,3.1513968,9.405991,9.960587395
55:11.2,1.42136E+12,-0.97118044,3.1096334,9.382489,9.931974183
55:11.2,1.42136E+12,-0.8659493,3.0786479,9.49715,10.02116756
55:11.2,1.42136E+12,-1.0243199,3.1708562,9.528585,10.09442878
55:11.2,1.42136E+12,-0.9897418,3.2618668,9.514664,10.10683902
55:11.2,1.42136E+12,-0.9277707,3.095413,9.46392,10.00040609
55:11.3,1.42136E+12,-0.9036708,3.0549972,9.395512,9.920951293
55:11.3,1.42136E+12,-0.92821974,3.214715,9.378148,9.957190584
55:11.3,1.42136E+12,-0.89962924,3.1015503,9.445658,9.982454712
55:11.3,1.42136E+12,-0.93256074,3.1753469,9.518107,10.07704611
55:11.3,1.42136E+12,-1.0344987,3.0931678,9.460776,10.00720526
55:11.4,1.42136E+12,-0.94812834,3.134482,9.368568,9.924413893
55:11.4,1.42136E+12,-0.92148376,3.1633718,9.482182,10.03831803
55:11.4,1.42136E+12,-0.9357042,3.0978081,9.330248,9.875499234
55:11.4,1.42136E+12,-0.91010743,3.0904734,9.304502,9.846475453
55:11.4,1.42136E+12,-0.9428893,3.2597713,9.328152,9.926206168
55:11.5,1.42136E+12,-0.93615323,3.1120286,9.363928,9.911823872
55:11.5,1.42136E+12,-0.8479866,3.1066396,9.41078,9.946510498
55:11.5,1.42136E+12,-0.93450665,3.1653178,9.425599,9.986713972
55:11.5,1.42136E+12,-1.0645862,3.0707145,9.411678,9.957023355
55:11.5,1.42136E+12,-0.8704399,3.1337333,9.295071,9.847654285
55:11.6,1.42136E+12,-0.902623,3.0774505,9.55538,10.07922203
55:11.6,1.42136E+12,-0.89618635,3.1521451,9.586814,10.13144468
55:11.6,1.42136E+12,-0.98794556,3.1281948,9.416019,9.971110918
55:11.6,1.42136E+12,-1.0529104,3.1240036,9.323512,9.889180695
55:11.6,1.42136E+12,-1.047821,3.1579828,9.342073,9.916910414
55:11.7,1.42136E+12,-1.0967692,3.050656,9.48787,10.02641919
55:11.7,1.42136E+12,-1.0226734,3.0654752,9.56481,10.09596897
55:11.7,1.42136E+12,-1.008902,3.1165192,9.516311,10.06433059
55:11.7,1.42136E+12,-0.963696,3.1485527,9.47799,10.03366277
55:11.7,1.42136E+12,-0.90337145,3.1597793,9.423354,9.979974239
55:11.8,1.42136E+12,-0.9425899,3.0798454,9.331146,9.871383342
55:11.8,1.42136E+12,-0.9821077,3.104993,9.341175,9.892576381
55:11.8,1.42136E+12,-0.96040285,3.2403116,9.499994,10.08324744
55:11.8,1.42136E+12,-1.0047107,3.2084281,9.583671,10.1562889
55:11.8,1.42136E+12,-0.9318123,3.077151,9.347462,9.884947055
55:11.9,1.42136E+12,-0.9753717,3.0205686,9.327254,9.852555597
55:11.9,1.42136E+12,-1.0876383,3.1659164,9.451196,10.02651931
55:11.9,1.42136E+12,-0.89334226,3.2208521,9.394764,9.971636739
55:11.9,1.42136E+12,-0.9520203,3.0892758,9.4176655,9.957027222
55:11.9,1.42136E+12,-0.93286014,3.066523,9.49221,10.01877448
55:12.0,1.42136E+12,-0.864602,2.9892838,9.404793,9.906234685
55:12.0,1.42136E+12,-0.87433183,3.1585817,9.439671,9.992421283
55:12.0,1.42136E+12,-0.86220706,3.129093,9.291029,9.841638273
55:12.0,1.42136E+12,-0.89229447,3.1507978,9.289533,9.849829418
55:12.0,1.42136E+12,-0.98420334,3.0355375,9.473649,9.996657917
55:12.1,1.42136E+12,-1.0309062,3.0621822,9.345666,9.888437713
55:12.1,1.42136E+12,-1.0258168,3.1780412,9.447903,10.02073436
55:12.1,1.42136E+12,-1.0184821,3.1653178,9.447304,10.01539292
55:12.1,1.42136E+12,-0.9952803,3.2606695,9.465267,10.06050833
55:12.1,1.42136E+12,-1.0115963,3.1660662,9.398954,9.96933491
55:12.2,1.42136E+12,-1.0014175,3.077151,9.375604,9.918348938
55:12.2,1.42136E+12,-0.9812096,3.128045,9.519005,10.06771543
55:12.2,1.42136E+12,-0.9181906,3.0778995,9.260642,9.801838071
55:12.2,1.42136E+12,-0.90471864,3.1220577,9.342671,9.891979656
55:12.2,1.42136E+12,-0.95725936,3.2181578,9.245823,9.83657095
55:12.3,1.42136E+12,-0.9505234,3.1708562,9.465866,10.02798299
55:12.3,1.42136E+12,-0.9554631,3.100203,9.395811,9.940092189
55:12.3,1.42136E+12,-0.8577164,3.1488519,9.506132,10.05074581
55:12.3,1.42136E+12,-0.8095166,3.2112722,9.437125,10.00134564
55:12.3,1.42136E+12,-0.97477293,3.133883,9.479038,10.03112986
55:12.4,1.42136E+12,-0.984353,3.131937,9.3751545,9.933353014
55:12.4,1.42136E+12,-0.97477293,3.1903157,9.375005,9.950829879
55:12.4,1.42136E+12,-1.0895842,3.1645691,9.397458,9.975665801
55:12.4,1.42136E+12,-1.0234218,3.1856754,9.303004,9.886445436
55:12.4,1.42136E+12,-1.0590477,3.1490016,9.317973,9.89254335
55:12.5,1.42136E+12,-0.86609894,3.2049851,9.400751,9.969763098
55:12.5,1.42136E+12,-1.0368937,3.1455588,9.423953,9.989022918
55:12.5,1.42136E+12,-0.9644444,3.152594,9.530381,10.08450117
55:12.5,1.42136E+12,-1.1301498,3.2293844,9.466165,10.06550754
55:12.5,1.42136E+12,-1.0792557,3.1653178,9.474547,10.04744099
55:12.6,1.42136E+12,-1.0559043,3.1597793,9.443861,10.0142723
55:12.6,1.42136E+12,-0.9195378,3.1828313,9.424402,9.989760653
55:12.6,1.42136E+12,-1.1668236,3.302732,9.50224,10.12729386
55:12.6,1.42136E+12,-0.9707314,3.3013847,9.340576,9.954286534
55:12.6,1.42136E+12,-1.0126442,3.1907647,9.313931,9.897259132
55:12.7,1.42136E+12,-1.131048,3.239264,9.527687,10.12664408
55:12.7,1.42136E+12,-0.9580078,3.0867312,9.56945,10.10049809
55:12.7,1.42136E+12,-1.0412347,3.2422576,9.462572,10.05667305
55:12.7,1.42136E+12,-0.9171428,3.2876134,9.438922,10.03707135
55:12.7,1.42136E+12,-0.94827807,3.234923,9.317374,9.908451765
55:12.8,1.42136E+12,-1.019979,3.1692095,9.316028,9.893059371
55:12.8,1.42136E+12,-1.0924283,3.2906072,9.371412,9.992239899
55:12.8,1.42136E+12,-0.9690848,3.2400124,9.375005,9.966319504
55:12.8,1.42136E+12,-1.0484198,3.147804,9.434581,10.00095859
55:12.8,1.42136E+12,-0.9514215,3.167563,9.539213,10.09629847
55:12.9,1.42136E+12,-0.99812436,3.1216085,9.402996,9.95776208
55:12.9,1.42136E+12,-0.9687854,3.0915213,9.4297905,9.970807288
55:12.9,1.42136E+12,-1.0458751,3.0716126,9.34836,9.895478431
55:12.9,1.42136E+12,-1.0389894,3.2486944,9.399404,9.999115453
55:12.9,1.42136E+12,-1.0096505,3.1365774,9.510773,10.06540188
55:13.0,1.42136E+12,-1.0138417,3.1870224,9.464219,10.03775015
55:13.0,1.42136E+12,-0.9234297,3.129093,9.380992,9.932117414
55:13.0,1.42136E+12,-1.1391312,3.198249,9.353001,9.950127852
55:13.0,1.42136E+12,-1.0939251,3.090623,9.359886,9.917463818
55:13.0,1.42136E+12,-0.993484,3.1870224,9.413026,9.987451162
55:13.1,1.42136E+12,-0.9970766,3.1190639,9.368119,9.923929411
55:13.1,1.42136E+12,-1.11084,3.0826895,9.389674,9.944994615
55:13.1,1.42136E+12,-0.95381653,3.1409185,9.312136,9.873753687
55:13.1,1.42136E+12,-1.0831475,3.1349308,9.439969,10.00569909
55:13.1,1.42136E+12,-1.0551558,3.268154,9.437275,10.04272591
55:13.2,1.42136E+12,-0.9966275,3.2439044,9.518107,10.10497615
55:13.2,1.42136E+12,-1.0479708,3.2003448,9.39641,9.981631656
55:13.2,1.42136E+12,-1.093476,3.2678545,9.430689,10.04054071
55:13.2,1.42136E+12,-0.9659413,3.1838791,9.3679695,9.941276642
55:13.2,1.42136E+12,-1.0506651,3.148403,9.492062,10.05562428
55:13.3,1.42136E+12,-1.0547067,3.14975,9.46347,10.02948631
55:13.3,1.42136E+12,-0.9599538,3.0302985,9.357192,9.882371295
55:13.3,1.42136E+12,-0.98944247,3.0928683,9.433233,9.976508184
55:13.3,1.42136E+12,-1.1099418,3.278183,9.4193125,10.03503376
55:13.3,1.42136E+12,-1.0041119,3.0422735,9.456285,9.984237315
55:13.4,1.42136E+12,-1.1198213,3.1504984,9.620344,10.18482492
55:13.4,1.42136E+12,-1.0807526,3.137775,9.472003,10.03655812
55:13.4,1.42136E+12,-0.99453187,3.1708562,9.321416,9.896070883
55:13.4,1.42136E+12,-0.9821077,3.1900163,9.44416,10.01663105
55:13.4,1.42136E+12,-1.0009685,3.233426,9.417366,10.00718562
55:13.5,1.42136E+12,-1.0674303,3.1190639,9.474847,10.03198349
55:13.5,1.42136E+12,-1.090632,3.2217503,9.433533,10.02799571
55:13.5,1.42136E+12,-0.9979747,3.2317796,9.385034,9.975931839
55:13.5,1.42136E+12,-1.1204201,3.1073883,9.4419155,10.00304811
55:13.5,1.42136E+12,-1.0238708,3.239713,9.306597,9.90741134
55:13.6,1.42136E+12,-1.0849439,3.1817834,9.406439,9.989091227
55:13.6,1.42136E+12,-1.0895842,3.1498997,9.33429,9.911510059
55:13.6,1.42136E+12,-1.1341914,3.0808933,9.428892,9.984102263
55:13.6,1.42136E+12,-1.0341994,3.129991,9.323512,9.889099457
55:13.6,1.42136E+12,-1.0529104,3.157534,9.43009,10.00026193
55:13.7,1.42136E+12,-1.108894,3.1796877,9.34357,9.93188603
55:13.7,1.42136E+12,-1.054108,3.148403,9.477691,10.04242062
55:13.7,1.42136E+12,-0.977617,3.170407,9.414073,9.981582339
55:13.7,1.42136E+12,-1.0133927,3.233426,9.374556,9.968164759
55:13.7,1.42136E+12,-1.1424243,3.1557376,9.30061,9.887626583
55:13.8,1.42136E+12,-1.1421249,3.1629226,9.356593,9.942553054
55:13.8,1.42136E+12,-1.1874806,3.1178663,9.389674,9.964796951
55:13.8,1.42136E+12,-1.0677296,3.2879128,9.473351,10.08438378
55:13.8,1.42136E+12,-1.1091934,3.3293765,9.388177,10.02262068
55:13.9,1.42136E+12,-1.1410772,3.1883698,9.420061,10.01026016
55:13.9,1.42136E+12,-1.0888357,3.1409185,9.48817,10.05367108
55:13.9,1.42136E+12,-0.96145064,3.134482,9.473051,10.0243733
55:13.9,1.42136E+12,-1.0147399,3.0277538,9.402397,9.929856972
55:13.9,1.42136E+12,-0.96040285,3.1398706,9.3244095,9.885634706
55:13.9,1.42136E+12,-0.97372514,3.0213172,9.286388,9.813944179
55:14.0,1.42136E+12,-0.9982741,3.0542486,9.322464,9.860695752
55:14.0,1.42136E+12,-1.1467652,3.1735506,9.182654,9.783027564
55:14.0,1.42136E+12,-1.0535092,3.035837,9.283245,9.823686969
55:14.0,1.42136E+12,-1.1611354,3.1262488,9.194929,9.781021741
55:14.1,1.42136E+12,-1.2763957,3.098856,9.341774,9.924758736
55:14.1,1.42136E+12,-1.2677138,3.2103739,9.48323,10.09184077
55:14.1,1.42136E+12,-1.4976356,3.27489,9.427096,10.09147937
55:14.1,1.42136E+12,-1.5736775,3.3467405,9.528136,10.22069022
55:14.1,1.42136E+12,-1.7308507,3.4655933,9.574241,10.32822694
55:14.1,1.42136E+12,-1.746568,3.5193315,9.3771,10.16691686
55:14.2,1.42136E+12,-1.832639,3.4428406,9.288035,10.07369402
55:14.2,1.42136E+12,-1.6851956,3.4838552,9.22337,10.00238399
55:14.2,1.42136E+12,-1.8182689,3.629652,9.15571,10.01536325
55:14.2,1.42136E+12,-1.7542021,3.800896,9.211544,10.11813117
55:14.2,1.42136E+12,-1.7443227,3.853287,9.169931,10.09842151
55:14.3,1.42136E+12,-1.9568807,3.753295,9.141191,10.07362786
55:14.3,1.42136E+12,-1.8968555,3.7356317,9.04524,9.968418713
55:14.3,1.42136E+12,-1.7521064,3.742218,9.024733,9.925718015
55:14.3,1.42136E+12,-1.7515078,3.766767,8.934919,9.853379661
55:14.3,1.42136E+12,-1.680705,3.8681061,9.207054,10.12703597
55:14.4,1.42136E+12,-1.891317,4.1709266,9.17532,10.25476503
55:14.4,1.42136E+12,-1.745071,3.263214,9.808353,10.4832069
55:14.4,1.42136E+12,-1.8027012,3.6015105,9.986632,10.76816736
55:14.4,1.42136E+12,-1.7717156,3.8236487,9.474398,10.36935307
55:14.5,1.42136E+12,-1.7696201,3.7757483,9.177416,10.08031721
55:14.5,1.42136E+12,-1.7310004,3.4615517,8.8879175,9.69400743
55:14.5,1.42136E+12,-1.6151413,3.3867073,8.7517,9.522117445
55:14.5,1.42136E+12,-1.7232165,3.5338514,8.822055,9.658479966
55:14.5,1.42136E+12,-1.6124469,3.5947747,9.067394,9.886355451
55:14.5,1.42136E+12,-1.6274158,3.5958223,9.322614,10.12371236
55:14.6,1.42136E+12,-1.7438736,3.6802468,9.331146,10.18113929
55:14.6,1.42136E+12,-1.7926722,3.713777,9.358239,10.22655614
55:14.6,1.42136E+12,-1.8317409,3.6766543,9.173524,10.05119914
55:14.6,1.42136E+12,-1.6551082,3.8166132,9.129814,10.03291698
55:14.6,1.42136E+12,-1.7521064,3.7098854,9.1025715,9.984484685
55:14.7,1.42136E+12,-1.6569045,3.591781,9.176068,9.992319411
55:14.7,1.42136E+12,-1.6369958,3.5372941,9.072933,9.874731289
55:14.7,1.42136E+12,-1.6856446,3.6783009,9.273366,10.11763867
55:14.7,1.42136E+12,-1.7203724,3.6317477,9.288485,10.12053487
55:14.7,1.42136E+12,-1.6305592,3.5425332,9.50224,10.27135969
55:14.8,1.42136E+12,-1.5164964,3.378175,9.4739485,10.17189893
55:14.8,1.42136E+12,-1.4591657,3.4167948,9.539213,10.23719864
55:14.8,1.42136E+12,-1.4299763,3.3871565,9.499546,10.18621792
55:14.8,1.42136E+12,-1.3331277,3.376229,9.340876,10.02138295
55:14.8,1.42136E+12,-1.2692107,3.1000533,9.221574,9.811149438
55:14.9,1.42136E+12,-1.2015513,3.0162277,9.137149,9.696847267
55:14.9,1.42136E+12,-1.2111315,3.068469,8.969797,9.557175301
55:14.9,1.42136E+12,-1.1226654,3.129093,9.191636,9.774342585
55:14.9,1.42136E+12,-1.1038046,3.2241454,9.270223,9.876767317
55:14.9,1.42136E+12,-1.1662248,3.1543903,9.506282,10.08363307
55:15.0,1.42136E+12,-1.1482621,3.049758,9.703721,10.23629479
55:15.0,1.42136E+12,-1.0991642,3.1678624,9.547297,10.11901152
55:15.0,1.42136E+12,-1.0577005,3.114723,9.403745,9.962462032
55:15.0,1.42136E+12,-1.0553055,3.2063324,9.287886,9.88226004
55:15.0,1.42136E+12,-1.1500584,3.228636,9.152267,9.772958405
55:15.1,1.42136E+12,-1.1594888,3.2504907,9.139395,9.769270445
55:15.1,1.42136E+12,-1.1705658,3.2771351,9.308693,9.937887307
55:15.1,1.42136E+12,-1.3105247,3.3633559,9.475296,10.13956963
55:15.1,1.42136E+12,-1.4064752,3.2530353,9.50209,10.14150509
55:15.1,1.42136E+12,-1.2225078,3.4814603,9.581575,10.26750557
55:15.2,1.42136E+12,-1.3061838,3.3489857,9.48802,10.14614926
55:15.2,1.42136E+12,-1.2298425,3.1581326,8.124954,8.803476109
55:15.2,1.42136E+12,-1.5599061,3.1129267,8.525671,9.209271724
55:15.2,1.42136E+12,-1.7586927,3.7625756,10.704091,11.48161745
55:15.3,1.42136E+12,-1.4787749,3.3404534,10.5322485,11.14780977
55:15.3,1.42136E+12,-1.1008109,3.1014006,9.398805,9.958313399
55:15.3,1.42136E+12,-1.1349399,3.1431637,9.102721,9.696756995
55:15.3,1.42136E+12,-1.239722,3.3648527,9.157956,9.835003936
55:15.3,1.42136E+12,-1.2522959,3.259472,9.294172,9.928445795
55:15.3,1.42136E+12,-1.0159373,3.1876214,9.470655,10.04422047
55:15.4,1.42136E+12,-1.045426,3.1169682,9.633517,10.17904986
55:15.4,1.42136E+12,-1.1689192,2.9298573,9.579779,10.08576232
55:15.4,1.42136E+12,-1.1579919,3.0952635,9.360635,9.926887175
55:15.4,1.42136E+12,-1.3304334,3.2659085,9.337283,9.981035276
55:15.4,1.42136E+12,-1.2943584,3.267555,9.422007,10.05616703
55:15.5,1.42136E+12,-1.2960049,3.0746064,9.4193125,9.992811476
55:15.5,1.42136E+12,-1.2400213,3.0663733,9.319021,9.888602047
55:15.5,1.42136E+12,-1.2998968,3.1943574,9.265882,9.886871099
55:15.5,1.42136E+12,-1.2888199,3.3867073,9.35779,10.03489296
55:15.5,1.42136E+12,-1.2958553,3.2183075,9.384285,10.00507617
55:15.6,1.42136E+12,-1.3175601,3.1220577,9.332343,9.928536386
55:15.6,1.42136E+12,-1.2259506,3.179089,9.217532,9.827128671
55:15.6,1.42136E+12,-1.2121793,3.2428565,9.415271,10.03159135
55:15.6,1.42136E+12,-1.2364289,3.1057415,9.360036,9.939047269
55:15.7,1.42136E+12,-1.1044034,3.1647189,9.406738,9.986083936
55:15.7,1.42136E+12,-1.0773097,3.0494585,9.330398,9.875025072
55:15.7,1.42136E+12,-1.0819501,3.2540832,9.417068,10.02201792
55:15.7,1.42136E+12,-1.1226654,3.1436129,9.398057,9.973272033
55:15.7,1.42136E+12,-1.1216176,3.1515462,9.421408,9.997659636
55:15.8,1.42136E+12,-1.1464659,3.146457,9.364826,9.945579004
55:15.8,1.42136E+12,-1.1708652,3.1145732,9.398655,9.970266162
55:15.8,1.42136E+12,-1.225801,3.1498997,9.240584,9.839352056
55:15.8,1.42136E+12,-1.3156142,3.1951058,9.362281,9.9795715
55:15.8,1.42136E+12,-1.4507831,3.389252,9.51167,10.20116008
55:15.8,1.42136E+12,-1.5935861,3.50077,9.35779,10.11746712
55:15.9,1.42136E+12,-1.631607,3.3673975,9.26184,9.989153493
55:15.9,1.42136E+12,-1.7098943,3.3870068,9.488468,10.21893236
55:15.9,1.42136E+12,-1.7643809,3.4938843,9.41557,10.19672623
55:15.9,1.42136E+12,-1.7082477,3.549868,9.483829,10.26950269
55:15.9,1.42136E+12,-1.7625847,3.591781,9.269624,10.09621338
55:16.0,1.42136E+12,-1.7371376,3.5666332,9.273516,10.08645718
55:16.0,1.42136E+12,-1.6908838,3.497926,8.394693,9.250159182
55:16.0,1.42136E+12,-1.8896704,3.7773948,9.889035,10.75325899
55:16.0,1.42136E+12,-1.6988173,3.5323544,9.659413,10.42438331
55:16.0,1.42136E+12,-1.4648538,3.372337,9.174122,9.88346943
55:16.1,1.42136E+12,-1.4058765,3.4608033,8.97324,9.719705979
55:16.1,1.42136E+12,-1.5373032,3.3778756,9.089548,9.818005273
55:16.1,1.42136E+12,-1.3915063,3.186873,9.231453,9.864693294
55:16.1,1.42136E+12,-1.4480886,3.3153057,9.369316,10.04352004
55:16.1,1.42136E+12,-1.4266832,3.2660582,9.528585,10.17332262
55:16.2,1.42136E+12,-1.3314812,3.206033,9.531878,10.1443673
55:16.2,1.42136E+12,-1.3100756,3.1364279,9.49221,10.08243665
55:16.2,1.42136E+12,-1.2813355,3.153642,9.372759,9.9717546
55:16.2,1.42136E+12,-1.4509327,3.2602203,9.400601,10.05512512
55:16.2,1.42136E+12,-1.3766872,3.2624657,9.330847,9.980163116
55:16.3,1.42136E+12,-1.3738431,3.2355218,9.232202,9.878744857
55:16.3,1.42136E+12,-1.4723382,3.3751812,9.07937,9.797682762
55:16.3,1.42136E+12,-1.5124549,3.4356556,9.144184,9.884702841
55:16.3,1.42136E+12,-1.4054275,3.2986903,9.304502,9.971476401
55:16.3,1.42136E+12,-1.355581,3.335813,9.3486595,10.01811772
55:16.4,1.42136E+12,-1.3519886,3.2443533,9.231752,9.878205632
55:16.4,1.42136E+12,-1.5849042,3.307971,9.356144,10.04947879
55:16.4,1.42136E+12,-1.529669,3.3028817,9.286838,9.97468169
55:16.4,1.42136E+12,-1.4177018,3.3203952,9.349109,10.02201286
55:16.4,1.42136E+12,-1.3477973,3.2253428,9.451795,10.07749088
55:16.5,1.42136E+12,-1.2213103,3.3340168,9.307196,9.961484039
55:16.5,1.42136E+12,-1.3903089,3.2621663,9.435629,10.07996937
55:16.5,1.42136E+12,-1.2217593,3.2211516,9.350605,9.965055308
55:16.5,1.42136E+12,-1.2786411,3.1828313,9.488468,10.08941837
55:16.5,1.42136E+12,-1.3304334,3.2153137,9.385034,10.00935355
55:16.6,1.42136E+12,-1.1864328,3.1051428,9.325607,9.900327293
55:16.6,1.42136E+12,-1.3289365,3.0024564,9.294771,9.857666286
55:16.6,1.42136E+12,-1.25514,3.181484,9.361981,9.967141271
55:16.6,1.42136E+12,-1.4331198,3.1870224,9.330398,9.96329619
55:16.6,1.42136E+12,-1.30319,3.3432975,9.29552,9.964067163
55:16.7,1.42136E+12,-1.3486954,3.3726366,9.2521105,9.939577739
55:16.7,1.42136E+12,-1.3439053,3.4287698,9.345816,10.0452387
55:16.7,1.42136E+12,-1.3063334,3.3482373,9.315429,9.984709181
55:16.7,1.42136E+12,-1.3274395,3.348387,9.358389,10.02762364
55:16.7,1.42136E+12,-1.2030482,3.301235,9.467812,10.09875941
55:16.8,1.42136E+12,-1.2880714,3.3456926,9.345217,10.00928907
55:16.8,1.42136E+12,-1.2271482,3.2323782,9.51661,10.1252174
55:16.8,1.42136E+12,-1.2027489,3.2554302,9.501042,10.11504967
55:16.8,1.42136E+12,-0.93989545,3.1409185,9.388476,9.944458461
55:16.8,1.42136E+12,-0.9406439,3.1383736,9.443711,9.995893019
55:16.9,1.42136E+12,-1.1548485,3.1183155,9.349109,9.922872856
55:16.9,1.42136E+12,-1.0596465,3.036735,9.450298,9.982622023
55:16.9,1.42136E+12,-1.0803035,3.0889764,9.391022,9.9448542
55:16.9,1.42136E+12,-1.0159373,2.9536579,9.431587,9.935343825
55:16.9,1.42136E+12,-1.1496093,2.9609926,9.320667,9.847025543
55:17.0,1.42136E+12,-1.2138258,3.121459,9.326506,9.909621261
55:17.0,1.42136E+12,-1.2165202,3.2796798,9.334589,9.968488992
55:17.0,1.42136E+12,-1.0728191,3.133883,9.339977,9.909961344
55:17.0,1.42136E+12,-1.207539,3.3220417,9.439521,10.07961647
55:17.0,1.42136E+12,-1.1302996,3.2442036,9.479637,10.08295353
55:17.1,1.42136E+12,-1.1768527,3.1678624,9.491313,10.0749867
55:17.1,1.42136E+12,-1.2168196,3.199297,9.370813,9.976386496
55:17.1,1.42136E+12,-1.1633807,3.0798454,9.376351,9.937548008
55:17.1,1.42136E+12,-1.1302996,3.1262488,9.31498,9.890392366
55:17.1,1.42136E+12,-1.1470647,3.0879285,9.416169,9.975735486
55:17.2,1.42136E+12,-1.0020163,3.098856,9.435329,9.981602001
55:17.2,1.42136E+12,-1.0343491,3.095413,9.520203,10.06408092
55:17.2,1.42136E+12,-1.0662328,3.0373337,9.574839,10.10147466
55:17.2,1.42136E+12,-1.2246034,3.1621742,9.483978,10.07198282
55:17.2,1.42136E+12,-1.1681708,3.0572424,9.298963,9.858096519
55:17.3,1.42136E+12,-1.1015593,3.1043944,9.438473,9.996772982
55:17.3,1.42136E+12,-1.0030642,3.1585817,9.4012,9.968216369
55:17.3,1.42136E+12,-1.1472144,3.1210098,9.405991,9.976445747
55:17.3,1.42136E+12,-1.011297,3.1856754,9.411079,9.986974383
55:17.3,1.42136E+12,-1.2145743,3.032843,9.42051,9.970924534
55:17.4,1.42136E+12,-1.1210189,3.0379326,9.414822,9.956133343
55:17.4,1.42136E+12,-1.1666739,3.1196625,9.350904,9.92637032
55:17.4,1.42136E+12,-1.1343411,2.988685,9.484278,10.00852122
55:17.4,1.42136E+12,-0.99049026,3.0666728,9.425449,9.961156653
55:17.4,1.42136E+12,-1.1801459,3.1951058,9.507179,10.09890578
55:17.5,1.42136E+12,-1.1702664,3.2374678,9.563164,10.16389821
55:17.5,1.42136E+12,-1.2033477,3.1165192,9.538914,10.10700836
55:17.5,1.42136E+12,-1.1208692,3.2635136,9.467512,10.07673818
55:17.5,1.42136E+12,-1.0785072,3.3019836,9.218131,9.850899076
55:17.5,1.42136E+12,-1.1529025,3.1609766,9.214539,9.809622124
55:17.6,1.42136E+12,-1.1523038,3.1163695,9.368119,9.939880105
55:17.6,1.42136E+12,-1.2139755,3.0765524,9.446856,10.00909584
55:17.6,1.42136E+12,-1.1509566,3.2217503,9.512419,10.10893127
55:17.6,1.42136E+12,-1.0786569,3.3476386,9.467362,10.09956079
55:17.6,1.42136E+12,-1.0250684,3.2747402,9.428892,10.03387726
55:17.7,1.42136E+12,-1.1541001,3.280129,9.510024,10.12579625
55:17.7,1.42136E+12,-1.1180251,3.123854,9.398954,9.967385827
55:17.7,1.42136E+12,-1.1374846,3.026706,9.475296,10.01179578
55:17.7,1.42136E+12,-1.1253598,3.065176,9.415421,9.965535169
55:17.7,1.42136E+12,-1.1258088,2.9648845,9.323811,9.848423078
55:17.8,1.42136E+12,-1.0761123,3.1388228,9.352701,9.923872341
55:17.8,1.42136E+12,-1.0918295,3.2057335,9.345965,9.940617723
55:17.8,1.42136E+12,-1.1819421,3.189717,9.358838,9.957867763
55:17.8,1.42136E+12,-1.2629237,3.3191977,9.3944645,10.04330687
55:17.8,1.42136E+12,-1.2261003,3.1880703,9.33399,9.939340195
55:17.9,1.42136E+12,-1.1951147,3.2597713,9.449999,10.06761586
55:17.9,1.42136E+12,-0.97237796,3.1931598,9.440418,10.01315537
55:17.9,1.42136E+12,-1.1103909,3.1534922,9.41063,9.986863271
55:17.9,1.42136E+12,-1.1264076,3.302732,9.391022,10.01838944
55:17.9,1.42136E+12,-1.0551558,3.1145732,9.553433,10.10356383
55:18.0,1.42136E+12,-1.1168275,3.1522949,9.403745,9.980715747
55:18.0,1.42136E+12,-1.1057506,3.0720615,9.460477,10.00804033
55:18.0,1.42136E+12,-1.0794053,3.1461575,9.426048,9.995689257
55:18.0,1.42136E+12,-1.0244696,3.0635293,9.517808,10.05104069
55:18.1,1.42136E+12,-1.1828402,3.1855257,9.417965,10.01223
55:18.1,1.42136E+12,-1.2584331,3.1855257,9.46886,10.06928684
55:18.1,1.42136E+12,-1.2452605,3.1413674,9.553433,10.13345671
55:18.1,1.42136E+12,-1.1294014,3.3461416,9.452244,10.09044735
55:18.1,1.42136E+12,-1.1416758,3.2620165,9.372311,9.989213621
55:18.2,1.42136E+12,-1.2708572,3.1663656,9.299861,9.905976164
55:18.2,1.42136E+12,-1.0321038,3.0648766,9.312883,9.858422622
55:18.2,1.42136E+12,-1.1096425,3.2439044,9.264684,9.878693833
55:18.2,1.42136E+12,-1.2253518,3.1900163,9.426198,10.02650985
55:18.2,1.42136E+12,-1.2847782,3.1481035,9.489816,10.08056637
55:18.2,1.42136E+12,-1.1642789,3.187771,9.41557,10.00851576
55:18.3,1.42136E+12,-1.185834,3.2519875,9.35315,9.973115857
55:18.3,1.42136E+12,-1.2181668,3.2859669,9.322763,9.959689693
55:18.3,1.42136E+12,-1.1732602,3.0991552,9.535621,10.0950171
55:18.3,1.42136E+12,-1.2415183,3.1680121,9.474098,10.06658836
55:18.4,1.42136E+12,-1.1855347,3.2401621,9.297466,9.917006453
55:18.4,1.42136E+12,-1.0909314,3.0626311,9.352102,9.901093495
55:18.4,1.42136E+12,-1.1624826,3.078199,9.341025,9.903606562
55:18.4,1.42136E+12,-1.1647279,3.2389646,9.341175,9.955151086
55:18.4,1.42136E+12,-1.18778,3.2602203,9.343869,9.967333927
55:18.4,1.42136E+12,-0.97477293,3.3018339,9.043444,9.67657836
55:18.5,1.42136E+12,-1.1099418,3.047363,8.892109,9.465093477
55:18.5,1.42136E+12,-1.434467,3.2885115,9.191037,9.866466672
55:18.5,1.42136E+12,-1.5516733,3.7125797,9.442365,10.26397559
55:18.5,1.42136E+12,-1.3061838,4.1568556,8.577313,9.620595766
55:18.5,1.42136E+12,-1.5968792,3.9474413,8.459508,9.47077566
55:18.6,1.42136E+12,-1.7781523,3.74611,9.172925,10.06666374
55:18.6,1.42136E+12,-1.5988252,4.038901,9.935739,10.84379421
55:18.6,1.42136E+12,-1.1035053,4.060606,9.595346,10.47744768
55:18.6,1.42136E+12,-0.66955763,4.166735,8.466394,9.459905673
55:18.7,1.42136E+12,-0.6939569,4.3584867,7.8219843,8.981170351
55:18.7,1.42136E+12,-0.970432,4.083359,7.923473,8.966436492
55:18.7,1.42136E+12,-0.77613604,3.9291792,9.009166,9.859305673
55:18.7,1.42136E+12,-0.38065842,3.4486785,9.531579,10.14343544
55:18.7,1.42136E+12,-0.3686833,2.9548554,8.968001,9.449451823
55:18.9,1.42136E+12,-0.690065,2.4803421,7.9900846,8.394625575
55:18.9,1.42136E+12,-0.76475966,2.9855416,8.255782,8.812278503
55:18.9,1.42136E+12,-0.12409195,3.4667907,9.059461,9.7009211
55:18.9,1.42136E+12,0.3156935,2.6740394,10.023755,10.37910465
55:18.9,1.42136E+12,0.067060545,2.5724006,10.021061,10.34617831
55:18.9,1.42136E+12,-0.49546966,3.2415092,11.211086,11.68080996
55:18.9,1.42136E+12,-1.6096028,5.132377,10.794502,12.06040581
55:18.9,1.42136E+12,-1.8169217,4.8163843,11.152259,12.28298184
55:18.9,1.42136E+12,-1.3698015,1.4958394,12.535981,12.69900434
55:19.0,1.42136E+12,-1.3085788,-2.4119344,13.239967,13.52133618
55:19.0,1.42136E+12,-1.6920813,-3.3894017,13.848751,14.35754461
55:19.0,1.42136E+12,-1.0783576,-1.5352075,12.086466,12.23120507
55:19.0,1.42136E+12,-0.5284012,0.31030473,10.411899,10.42991551
55:19.0,1.42136E+12,-0.63587767,0.7189549,9.840836,9.887532035
55:19.0,1.42136E+12,-0.80502594,0.703537,10.434651,10.48927893
55:19.0,1.42136E+12,-1.1445199,-0.43454635,11.07487,11.14232928
55:19.1,1.42136E+12,-0.5204677,-0.5677693,10.830129,10.85748326
55:19.1,1.42136E+12,0.30820906,0.44218048,10.806028,10.81946198
55:19.2,1.42136E+12,0.81280977,0.6011499,11.896661,11.93953868
55:19.2,1.42136E+12,0.7792795,0.6780899,14.106665,14.14443636
55:19.2,1.42136E+12,0.76535845,1.7265097,14.847176,14.96680475
55:19.2,1.42136E+12,1.3422588,-0.25372237,12.724739,12.79785202
55:19.2,1.42136E+12,0.43873763,0.6493497,12.070599,12.09601199
55:19.2,1.42136E+12,0.45535308,0.12633727,13.163626,13.17210526
55:19.2,1.42136E+12,-0.52316207,0.38365218,15.082636,15.09658227
55:19.2,1.42136E+12,-0.48768586,0.040715333,14.764398,14.77250634
55:19.3,1.42136E+12,0.54621416,-0.37018022,13.056449,13.07311148
55:19.3,1.42136E+12,1.2817845,-0.43304947,11.513008,11.5922326
55:19.3,1.42136E+12,0.6129753,-0.7113208,10.564431,10.60607931
55:19.3,1.42136E+12,0.92821974,-0.16555573,11.070978,11.11105551
55:19.3,1.42136E+12,0.33949402,0.35416353,12.240496,12.25032368
55:19.4,1.42136E+12,-0.004191284,0.73751634,11.7809515,11.80401483
55:19.4,1.42136E+12,-0.14250366,0.6512956,11.761791,11.78067149
55:19.8,1.42136E+12,-0.31539413,0.7282356,11.726464,11.75328714
55:19.8,1.42136E+12,-0.3528163,0.41209304,11.44969,11.46253467
55:19.8,1.42136E+12,-0.22917344,-0.043709107,10.299183,10.30182515
55:19.9,1.42136E+12,-0.3821553,-0.3222798,9.543554,9.556638002
55:19.9,1.42136E+12,-0.1857637,-0.07649094,9.09868,9.10089758
55:19.9,1.42136E+12,0.21719833,0.36284545,8.595276,8.605672632
55:19.9,1.42136E+12,-0.13501923,0.9039702,8.41535,8.46483951
55:19.9,1.42136E+12,-0.7129674,1.3943504,9.07413,9.208277299
55:19.9,1.42136E+12,-1.3262421,1.3177098,8.638087,8.8380894
55:19.9,1.42136E+12,-1.1003618,0.57570285,8.35787,8.449628441
55:19.9,1.42136E+12,-0.7747888,-0.60010207,8.265661,8.323555247
55:19.9,1.42136E+12,-0.36419266,-0.5864804,8.562195,8.589981302
55:19.9,1.42136E+12,-0.5957611,0.58198977,6.928492,6.978369779
55:19.9,1.42136E+12,-0.012424164,1.2142749,9.817036,9.891855929
55:19.9,1.42136E+12,0.36449203,1.5814613,9.672436,9.807644593
55:19.9,1.42136E+12,1.0665321,2.296674,8.551717,8.918747997
55:20.0,1.42136E+12,-0.007634125,3.3792229,4.7127995,5.799110692
55:20.0,1.42136E+12,-1.475332,3.8089793,3.8490958,5.612527621
55:20.0,1.42136E+12,-1.8461109,3.6848872,6.237529,7.476181322
55:20.0,1.42136E+12,-3.323838,2.6351202,10.891501,11.68830833
55:20.0,1.42136E+12,0.20357665,1.8315911,14.5466,14.66286947
55:20.0,1.42136E+12,0.88181627,2.8520193,11.653866,12.03013744
55:20.0,1.42136E+12,-0.642464,3.9835162,8.491392,9.401324343
55:20.1,1.42136E+12,-2.99587,6.525081,5.5486617,9.074115151
55:20.1,1.42136E+12,-2.19758,5.672454,5.1910553,7.997071174
55:20.1,1.42136E+12,-1.781146,4.97236,8.306676,9.843663506
55:20.1,1.42136E+12,-2.7490335,4.8623385,12.182716,13.40216736
55:20.1,1.42136E+12,-0.7803273,2.3608904,9.359437,9.684099087
55:20.2,1.42136E+12,0.3544629,3.2886612,10.090068,10.61839953
55:20.2,1.42136E+12,-0.3171904,3.850892,7.112759,8.094524046
55:20.2,1.42136E+12,1.1527529,2.2815554,7.381001,7.811114521
55:20.2,1.42136E+12,2.488575,1.2660671,8.677455,9.115599635
55:20.2,1.42136E+12,1.4217435,0.9201366,7.3980656,7.589425575
55:20.3,1.42136E+12,0.5141808,0.7364685,8.865165,8.91055095
55:20.3,1.42136E+12,0.32452515,0.33365616,6.9048414,6.92051138
55:20.3,1.42136E+12,0.086819455,0.51537824,6.0040145,6.026719046
55:20.3,1.42136E+12,0.5233118,1.2573853,5.759124,5.917971129
55:20.3,1.42136E+12,0.9066646,1.7447717,5.2932925,5.646699432
55:20.4,1.42136E+12,2.1243823,0.32856673,4.4821296,4.970959867
55:20.4,1.42136E+12,0.45625123,0.74125856,5.2343154,5.306193282
55:20.4,1.42136E+12,1.7760566,-0.22528152,5.5054016,5.789177453
55:20.4,1.42136E+12,3.6682718,0.16675323,6.4355674,7.409490698
55:20.5,1.42136E+12,4.3589354,0.23950195,7.2817574,8.490092452
55:20.5,1.42136E+12,3.1392717,-1.4588662,7.3140903,8.091924018
55:20.5,1.42136E+12,4.7056146,-1.7786014,6.7277594,8.400534403
55:20.5,1.42136E+12,8.06433,-1.526825,9.011111,12.1887134
55:20.5,1.42136E+12,10.018966,-1.1223661,10.144704,14.30225173
55:20.5,1.42136E+12,9.113948,-1.9963984,9.583371,13.3750011
55:20.6,1.42136E+12,10.408456,-2.7117608,10.840307,15.2709482
55:20.6,1.42136E+12,12.783566,-2.0302281,5.210215,13.95305437
55:20.6,1.42136E+12,13.563595,-0.95755875,2.9235704,13.90810167
55:20.6,1.42136E+12,11.840977,-1.1750565,4.3363323,12.66464654
55:20.6,1.42136E+12,11.022629,-3.1461575,4.2700205,12.23232325
55:20.8,1.42136E+12,10.860216,-3.9525306,5.619015,12.85068556
55:20.8,1.42136E+12,11.107203,-4.8523097,3.5405874,12.6273761
55:20.8,1.42136E+12,14.7632,-4.90021,-2.074087,15.69286364
55:20.8,1.42136E+12,16.783699,-4.8117437,-1.4959891,17.52379562
55:20.8,1.42136E+12,13.689333,-5.304519,-0.40700364,14.68677677
55:20.8,1.42136E+12,11.289373,-7.4366856,-0.7608678,13.54005743
55:20.8,1.42136E+12,9.0462885,-8.4222355,-0.21674927,12.36189171
55:20.8,1.42136E+12,7.295529,-8.44873,0.7472461,11.18767888
55:20.8,1.42136E+12,6.938222,-7.927365,-0.60728717,10.55229066
55:20.8,1.42136E+12,7.2308636,-6.5786695,-1.2274475,9.85245696
55:20.9,1.42136E+12,6.9250493,-3.9603145,0.86729646,8.024500103
55:20.9,1.42136E+12,6.768625,-2.853067,1.5362554,7.504289197
55:20.9,1.42136E+12,3.9133122,-4.3257046,1.8321899,6.114135466
55:21.1,1.42136E+12,0.900677,-5.4926777,1.6143929,5.795428527
55:21.1,1.42136E+12,0.2612068,-3.6396813,0.74889266,3.725097203
55:21.1,1.42136E+12,0.26704466,-2.3882835,0.09220825,2.404935194
55:21.1,1.42136E+12,0.44128236,3.0964608,-4.5741878,5.541298912
55:21.1,1.42136E+12,3.0614338,-5.9133034,-0.6147716,6.68711284
55:21.1,1.42136E+12,3.0960119,-13.467793,6.0776615,15.09651308
55:21.1,1.42136E+12,8.068821,-12.884157,10.31969,18.37398638
55:21.1,1.42136E+12,10.560689,-7.6380167,0.6647676,13.05026311
55:21.1,1.42136E+12,11.843521,-8.65575,-7.913594,16.66781233
55:21.1,1.42136E+12,11.242072,-17.492924,-2.8099566,20.98290802
55:21.1,1.42136E+12,9.193731,-12.877721,1.0532098,15.85779426
55:21.1,1.42136E+12,9.610914,-13.172158,0.7345226,16.32222221
55:21.2,1.42136E+12,7.7061253,-12.693154,1.5355068,14.92843953
55:21.2,1.42136E+12,6.8111362,-12.376413,1.6473243,14.22254733
55:21.2,1.42136E+12,7.821535,-10.032138,3.5140924,13.19731215
55:21.2,1.42136E+12,5.076843,-8.2848215,4.1366477,10.56051402
55:21.2,1.42136E+12,9.522897,-7.0379148,3.0256581,12.22180097
55:21.3,1.42136E+12,3.2621663,-2.9817994,3.5564544,5.672849771
55:21.3,1.42136E+12,-5.85732,-0.03742218,-1.3579761,6.012794449
55:21.3,1.42136E+12,-3.767216,2.759362,1.8718574,5.030889103
55:21.3,1.42136E+12,0.44023454,-2.9292586,0.86669767,3.08634529
55:21.3,1.42136E+12,3.3688943,-3.4352064,0.54890853,4.84266377
55:21.4,1.42136E+12,4.0709343,-7.1410503,2.7110124,8.65544301
55:21.5,1.42136E+12,4.097579,-7.2925353,5.665119,10.10271241
55:21.5,1.42136E+12,5.2885027,-9.172925,9.045839,13.92616304
55:21.5,1.42136E+12,7.259903,-10.000105,7.095395,14.24966392
55:21.5,1.42136E+12,7.853419,-6.228248,4.455485,10.96898399
55:21.5,1.42136E+12,5.7318807,-7.2067633,4.4002495,10.20559108
55:21.5,1.42136E+12,5.955815,-9.669742,7.133566,13.41131636
55:21.5,1.42136E+12,7.3452253,-9.28624,3.6714153,12.39620419
55:21.5,1.42136E+12,5.261259,-9.07413,2.2519171,10.7280852
55:21.5,1.42136E+12,3.551365,-10.107731,2.2896388,10.95540347
55:21.6,1.42136E+12,4.430786,-8.999735,0.676593,10.05409731
55:21.6,1.42136E+12,5.7896605,-8.187973,0.19429596,10.02999609
55:21.7,1.42136E+12,4.1361985,-8.695567,1.8486557,9.805026842
55:21.7,1.42136E+12,2.3623874,-7.2109547,3.7288957,8.454785926
55:21.7,1.42136E+12,-0.8190967,-4.0935373,4.568051,6.188300006
55:21.7,1.42136E+12,-0.6414162,-2.331851,5.359455,5.879855587
55:21.7,1.42136E+12,2.088008,-4.52509,5.927973,7.744487123
55:21.7,1.42136E+12,5.6790404,-8.120164,7.9820013,12.72402876
55:21.7,1.42136E+12,9.003178,-7.9423337,6.5819626,13.6916073
55:21.7,1.42136E+12,6.2608805,-6.4671516,3.0638287,9.50840264
55:21.8,1.42136E+12,4.088448,-7.281458,5.548063,10.02576883
55:21.8,1.42136E+12,4.5665536,-7.9171863,5.5559964,10.69599676
55:21.8,1.42136E+12,7.8433895,-10.56503,1.565295,13.25099114
55:21.8,1.42136E+12,6.6725245,-6.9760933,-0.0782872,9.653734501
55:21.8,1.42136E+12,4.3550434,-7.2039194,2.4700136,8.772902879
55:21.9,1.42136E+12,3.6844382,-8.043972,5.970185,10.67350361
55:21.9,1.42136E+12,5.9845552,-7.1437445,4.8635364,10.51199185
55:21.9,1.42136E+12,8.183482,-7.9514647,6.0303597,12.9058284
55:21.9,1.42136E+12,10.487192,-6.893914,3.0687685,12.91992981
55:21.9,1.42136E+12,7.4667726,-5.336253,-1.2701088,9.265066945
55:22.0,1.42136E+12,1.8278489,-7.3509135,-0.19175126,7.577184796
55:22.0,1.42136E+12,1.6383431,-7.1715865,2.3168821,7.712571796
55:22.0,1.42136E+12,3.979325,-6.5870523,1.2844789,7.802190173
55:22.0,1.42136E+12,4.7301636,-11.000624,4.153862,12.67449193
55:22.0,1.42136E+12,5.059778,-9.59834,3.357518,11.35792284
55:22.1,1.42136E+12,3.667224,-8.653655,-1.0550061,9.457659044
55:22.1,1.42136E+12,1.1283536,-7.281907,-0.5849835,7.391992769
55:22.1,1.42136E+12,0.21525238,-6.069728,0.42317,6.088267769
55:22.1,1.42136E+12,1.479673,-5.854176,2.7583141,6.63845656
55:22.1,1.42136E+12,3.200794,-5.6760464,-2.0200493,6.822256528
55:22.2,1.42136E+12,1.7988094,-4.944817,-7.1165013,8.850509656
55:22.2,1.42136E+12,-3.565286,-9.031619,-0.064815216,9.710077602
55:22.2,1.42136E+12,5.9083633,-15.535145,9.105715,18.95161029
55:22.2,1.42136E+12,11.092234,-11.699222,-4.4900627,16.73529544
55:22.2,1.42136E+12,6.3700037,-10.244995,-2.8755202,12.40183398
55:22.3,1.42136E+12,6.5650477,-14.483881,-5.003046,16.67072672
55:22.3,1.42136E+12,5.277426,-7.1081185,-2.911745,9.319594022
55:22.3,1.42136E+12,8.263566,-6.0876904,-4.6072693,11.25048567
55:22.3,1.42136E+12,10.210268,-5.0868716,-1.7395326,11.53914247
55:22.3,1.42136E+12,5.720654,-8.462652,-0.89992857,10.25437626
55:22.4,1.42136E+12,-0.85427356,-6.156847,-1.2928615,6.348861249
55:22.4,1.42136E+12,-2.7093658,-5.844147,2.6123676,6.951200017
55:22.5,1.42136E+12,-2.4363337,-7.427704,1.5489789,7.969055417
55:22.5,1.42136E+12,-7.0543804,-13.12336,3.59702,15.32727678
55:22.5,1.42136E+12,-3.7520974,-9.561217,-4.704567,11.29725879
55:22.5,1.42136E+12,-0.011975098,-7.9495187,-5.8948917,9.896703447
55:22.5,1.42136E+12,1.474883,-9.956994,7.480694,12.5410443
55:22.6,1.42136E+12,-1.0220746,-7.4327936,-12.053235,14.19758892
55:22.6,1.42136E+12,-1.3073813,-5.16935,-8.019573,9.630419326
55:22.6,1.42136E+12,-1.6621436,-5.389243,1.8456619,5.934065159
55:22.6,1.42136E+12,-1.5172448,-9.941277,2.381398,10.33450902
55:22.6,1.42136E+12,-2.8650422,-9.390123,-7.082522,12.10557701
55:22.6,1.42136E+12,-2.743944,-8.300539,-5.423821,10.28814904
55:22.6,1.42136E+12,-1.6799566,-6.672824,-0.9991722,6.953213602
55:22.7,1.42136E+12,-0.56717056,-1.6097525,-3.1633718,3.594427173
55:22.7,1.42136E+12,0.47930327,-1.1761043,-2.474654,2.781522132
55:22.7,1.42136E+12,2.8154953,-5.758974,-3.8444555,7.474799891
55:22.7,1.42136E+12,3.4805622,-7.0977902,-5.3567605,9.549231488
55:22.7,1.42136E+12,0.31913635,-5.4289107,1.3268409,5.597805478
55:22.7,1.42136E+12,-1.7441729,-9.847572,3.7916152,10.69547377
55:22.8,1.42136E+12,-1.1936178,-5.8733363,-3.2084281,6.798147808
55:22.8,1.42136E+12,-0.6394702,-4.8181806,-2.8321106,5.6253566
55:22.8,1.42136E+12,-0.22722748,-2.7390041,-0.0398172,2.748701729
55:22.8,1.42136E+12,-0.18516494,-3.4715807,2.0252883,4.023425321
55:22.8,1.42136E+12,-9.9942665,-17.13367,9.072185,21.81175259
55:22.9,1.42136E+12,-0.11660752,-18.059496,1.2585827,18.10367431
55:22.9,1.42136E+12,-1.4802718,-5.433401,-8.182883,9.933409547
55:22.9,1.42136E+12,-3.2928524,-6.962172,-3.6507583,8.52307175
55:22.9,1.42136E+12,-6.246211,-9.601334,-0.05373825,11.45441636
55:22.9,1.42136E+12,-10.008636,-9.981843,0.2932402,14.13845727
55:23.0,1.42136E+12,-11.584859,-6.4532304,-0.05358856,13.26107131
55:23.0,1.42136E+12,-8.884475,-6.862479,-0.3266208,11.2309481
55:23.0,1.42136E+12,-6.1087966,-8.215217,-0.06256989,10.2377293
55:23.0,1.42136E+12,-5.362299,-9.24732,-0.5680687,10.70466626
55:23.0,1.42136E+12,-5.3922367,-9.140143,-1.7110918,10.7492449
55:23.1,1.42136E+12,-5.6297927,-8.852441,-1.3933026,10.5830794
55:23.1,1.42136E+12,-5.7996893,-8.493787,-0.7711963,10.31385269
55:23.1,1.42136E+12,-5.325925,-8.134234,-0.88286406,9.762719335
55:23.1,1.42136E+12,-5.40032,-8.902737,-1.9965482,10.60228216
55:23.1,1.42136E+12,-5.67919,-8.828641,-2.026486,10.69133979
55:23.2,1.42136E+12,-5.038672,-8.236023,-2.2109025,9.904967453
55:23.2,1.42136E+12,-4.505331,-8.245454,-2.5706043,9.74133079
55:23.2,1.42136E+12,-4.853657,-8.621022,-3.497477,10.49344328
55:23.2,1.42136E+12,-5.226681,-8.169112,-2.91414,10.12644049
55:23.2,1.42136E+12,-5.9462347,-6.74213,-1.2759466,9.079761218
55:23.3,1.42136E+12,-5.4576507,-5.8019347,-0.42212218,7.976627393
55:23.3,1.42136E+12,-4.797374,-6.240523,-0.45295808,7.884421071
55:23.4,1.42136E+12,-4.2372384,-6.878646,-1.2097843,8.169059805
55:23.4,1.42136E+12,-3.8583765,-7.595954,-1.6708255,8.682006925
55:23.4,1.42136E+12,-4.019292,-7.533983,-2.0161574,8.773853127
55:23.4,1.42136E+12,-4.0154,-7.422315,-2.360142,8.76267467
55:23.4,1.42136E+12,-3.9998324,-7.7636056,-2.7159522,9.14596236
55:23.4,1.42136E+12,-4.1637416,-8.134983,-3.0990057,9.649794239
55:23.4,1.42136E+12,-4.4411144,-8.068072,-3.3265324,9.791991663
55:23.4,1.42136E+12,-5.085375,-7.9833484,-3.8255947,10.20931268
55:23.5,1.42136E+12,-5.605543,-8.331974,-4.1252713,10.85641591
55:23.5,1.42136E+12,-5.638624,-9.842033,-4.1665854,12.08387885
55:23.5,1.42136E+12,-5.5558467,-11.430081,-5.002298,13.65786109
55:23.5,1.42136E+12,-5.1229467,-10.596764,-3.7347336,12.34845032
55:23.5,1.42136E+12,-5.3708315,-7.269633,0.74574924,9.069153041
55:23.6,1.42136E+12,-7.123237,-5.0828304,3.1250515,9.292019001
55:23.6,1.42136E+12,-7.73756,-4.9067965,1.6558566,9.310657749
55:23.6,1.42136E+12,-6.2521987,-7.477401,-0.70458484,9.772305465
55:23.7,1.42136E+12,-4.644392,-10.277478,-0.65878004,11.29738564
55:23.7,1.42136E+12,-4.463867,-9.984537,0.50504977,10.94861466
55:23.7,1.42136E+12,-4.321214,-9.457034,1.1487112,10.46078008
55:23.7,1.42136E+12,-3.7660186,-8.684191,1.40902,9.569921984
55:23.7,1.42136E+12,-3.3949401,-8.532257,1.6808547,9.335432519
55:23.7,1.42136E+12,-3.1707065,-9.210048,2.059118,9.955818942
55:23.7,1.42136E+12,-2.8479776,-9.838291,1.6158898,10.36889802
55:23.8,1.42136E+12,-3.3275802,-9.527388,0.796344,10.12314555
55:23.8,1.42136E+12,-3.9366636,-9.111552,1.0991642,9.986283697
55:23.8,1.42136E+12,-4.3228607,-8.595575,1.5661931,9.748025187
55:23.8,1.42136E+12,-4.1098537,-8.703501,1.6214283,9.760679117
55:23.8,1.42136E+12,-3.9040315,-8.814421,1.1439213,9.707936725
55:23.9,1.42136E+12,-3.5708244,-8.8653145,1.253643,9.639305413
55:23.9,1.42136E+12,-3.0106893,-9.397758,1.3768369,9.963823831
55:23.9,1.42136E+12,-2.4595354,-9.93469,0.93480605,10.27721957
55:23.9,1.42136E+12,-2.1236339,-9.980495,0.6893166,10.22718235
55:23.9,1.42136E+12,-1.800905,-9.73276,0.44098297,9.907791985
55:24.0,1.42136E+12,-1.3434563,-9.841135,0.30895752,9.937216294
55:24.0,1.42136E+12,-1.0171349,-10.150841,0.067060545,10.20189362
55:24.0,1.42136E+12,-0.82044387,-9.672136,-0.035625916,9.706936291
55:24.0,1.42136E+12,-1.3314812,-9.460327,0.16121475,9.554926443
55:24.0,1.42136E+12,-2.2043161,-8.974438,0.8068222,9.276341356
55:24.1,1.42136E+12,-2.649191,-8.796009,1.1467652,9.257594596
55:24.1,1.42136E+12,-2.4031026,-9.832454,0.7458989,10.14930633
55:24.1,1.42136E+12,-1.7389339,-10.631492,0.7765851,10.80072209
55:24.1,1.42136E+12,-1.700913,-11.064241,0.54756135,11.20760266
55:24.1,1.42136E+12,-2.6686506,-11.578423,-0.65204406,11.89986288
55:24.2,1.42136E+12,-3.5606456,-11.087893,-1.9995419,11.81599493
55:24.2,1.42136E+12,-3.955225,-10.7662115,-2.5571325,11.75134211
55:24.2,1.42136E+12,-3.4682877,-11.407329,-2.2191353,12.12768469
55:24.2,1.42136E+12,-2.561174,-12.741055,-1.6052618,13.09469206
55:24.2,1.42136E+12,-2.4345374,-13.900992,-1.0121951,14.14881938
55:24.3,1.42136E+12,-3.4048197,-14.01745,-1.6453785,14.51857335
55:24.3,1.42136E+12,-4.5619135,-12.965288,-2.0559745,13.8973659
55:24.3,1.42136E+12,-5.487738,-11.28608,-0.7433542,12.57153314
55:24.3,1.42136E+12,-7.0912037,-10.369986,2.7027795,12.85016718
55:24.4,1.42136E+12,-7.9944253,-8.970246,4.793931,12.93668905
55:24.4,1.42136E+12,-9.065449,-10.484647,2.1555176,14.02698986
55:24.4,1.42136E+12,-6.726562,-11.134596,-2.8053162,13.30772946
55:24.4,1.42136E+12,-6.1233163,-10.57446,0.51522857,12.23027666
55:24.4,1.42136E+12,-5.103936,-9.602681,0.15028748,10.87585543
55:24.4,1.42136E+12,-4.370162,-7.6447525,-0.82089293,8.843891784
55:24.5,1.42136E+12,-3.4226327,-7.063811,0.58902514,7.871390669
55:24.5,1.42136E+12,-2.9362938,-5.7999887,1.0596465,6.586694232
55:24.5,1.42136E+12,-2.7928922,-4.608317,1.0716215,5.494106393
55:24.5,1.42136E+12,-2.7913952,-3.8209543,1.1067984,4.859689458
55:24.5,1.42136E+12,-2.6720934,-3.2148647,0.55639297,4.217227918
55:24.6,1.42136E+12,-2.3179297,-2.671794,0.08068222,3.538049024
55:24.6,1.42136E+12,-1.8748512,-2.7120602,-0.024099885,3.297107574
55:24.6,1.42136E+12,-1.8098863,-3.2765365,-0.98674804,3.871053028
55:24.6,1.42136E+12,-2.5912614,-3.9918988,-2.8145971,5.529181541
55:24.7,1.42136E+12,-3.8607714,-6.6704288,-6.8701134,10.32466146
55:24.7,1.42136E+12,-4.937782,-13.291161,-14.307847,20.14326532
55:24.7,1.42136E+12,-5.1024394,-18.016983,-12.265943,22.38526127
55:24.7,1.42136E+12,-4.2797503,-13.680651,-6.452183,15.71964185
55:24.7,1.42136E+12,-5.2076707,-9.342073,-3.4578094,11.24057863
55:24.7,1.42136E+12,-5.817652,-7.470515,-3.266208,10.01607627
55:24.8,1.42136E+12,-5.507198,-5.536387,-3.4997222,8.557386651
55:24.8,1.42136E+12,-7.423812,-8.500972,-2.4071443,11.54009763
55:24.8,1.42136E+12,-11.044184,-11.475586,0.76356214,15.94509647
55:24.8,1.42136E+12,-9.145532,-13.742922,-1.6750168,16.59259901
55:24.8,1.42136E+12,-3.5591488,-7.7436967,4.4053392,9.593716289
55:24.9,1.42136E+12,-3.1284943,-4.6907954,4.831952,7.425550363
55:24.9,1.42136E+12,-3.0799952,-3.7351828,5.58294,7.389667112
55:24.9,1.42136E+12,-2.895878,-6.5247817,4.647685,8.518207645
55:24.9,1.42136E+12,-1.3633648,-12.338542,1.7627344,12.53816633
55:25.0,1.42136E+12,-0.05867798,-14.840738,-0.8414003,14.86468641
55:25.0,1.42136E+12,-1.6232245,-12.144396,0.02335144,12.25241843
55:25.0,1.42136E+12,-3.1431637,-8.653655,1.5227834,9.331885779
55:25.0,1.42136E+12,-4.4589276,-7.045399,0.124241635,8.338771996
55:25.0,1.42136E+12,-4.456682,-7.4302487,0.24099883,8.66768081
55:25.0,1.42136E+12,-3.6366875,-8.814271,0.20088226,9.537149622
55:25.1,1.42136E+12,-2.6533823,-9.510623,0.49157774,9.886052607
55:25.1,1.42136E+12,-2.5982969,-9.200767,0.26225463,9.564206065
55:25.1,1.42136E+12,-2.9409342,-8.740623,0.5456154,9.238250947
55:25.1,1.42136E+12,-2.9484186,-8.568781,1.4771283,9.181453484
55:25.1,1.42136E+12,-2.7638526,-8.625663,1.7625847,9.227548331
55:25.2,1.42136E+12,-2.470313,-8.784931,1.4600638,9.241712249
55:25.2,1.42136E+12,-2.4677682,-9.398655,0.60683805,9.736161878
55:25.2,1.42136E+12,-2.5997937,-9.834699,-0.082478486,10.17285773
55:25.2,1.42136E+12,-3.167563,-9.714199,-0.3408412,10.223272
55:25.2,1.42136E+12,-3.1983988,-10.185569,-0.9834549,10.72113587
55:25.3,1.42136E+12,-2.836152,-10.864707,-1.1184741,11.28435203
55:25.3,1.42136E+12,-2.5029452,-11.7914295,-1.0234218,12.09751778
55:25.3,1.42136E+12,-2.6634114,-11.72856,-0.3927832,12.03358461
55:25.3,1.42136E+12,-3.2530353,-11.620635,-0.6367758,12.08415822
55:25.3,1.42136E+12,-3.2507899,-12.167598,-1.8681152,12.73216126
55:25.4,1.42136E+12,-2.949317,-13.841566,-2.326462,14.34223991
55:25.4,1.42136E+12,-2.3080504,-14.674135,-2.5194108,15.06667732
55:25.4,1.42136E+12,-1.4102174,-13.961766,-2.4360342,14.24267831
55:25.4,1.42136E+12,-2.3450234,-13.420342,-0.09190887,13.62399212
55:25.4,1.42136E+12,-3.9715412,-10.921738,3.0371842,12.01174377
55:25.5,1.42136E+12,-4.7816563,-10.4003725,4.9380813,12.46662071
55:25.5,1.42136E+12,-6.531667,-11.0283165,3.4615517,13.27662528
55:25.5,1.42136E+12,-8.459658,-11.029215,1.5506254,13.98620163
55:25.5,1.42136E+12,-6.48242,-11.946358,-0.5962102,13.60487799
55:25.5,1.42136E+12,-3.542683,-11.683504,2.097139,12.38760915
55:25.6,1.42136E+12,-4.127816,-9.458382,0.74380326,10.34664672
55:25.6,1.42136E+12,-4.730014,-6.740932,0.17872833,8.236816162
55:25.6,1.42136E+12,-4.4713516,-5.6362295,1.9309845,7.449078416
55:25.6,1.42136E+12,-4.1189847,-4.74633,2.0628603,6.614308433
55:25.6,1.42136E+12,-4.0854545,-3.9387593,1.9478993,5.999922914
55:25.7,1.42136E+12,-4.021687,-3.5663338,1.5262262,5.587671207
55:25.7,1.42136E+12,-3.811524,-2.9666808,1.3745915,5.0217937
55:25.7,1.42136E+12,-3.3271313,-2.350562,1.4952407,4.339434197
55:25.7,1.42136E+12,-2.7282267,-2.2150936,1.1202704,3.688477511
55:25.7,1.42136E+12,-2.2162912,-3.0446687,-0.34069154,3.781272921
55:25.8,1.42136E+12,-2.7496321,-5.7312818,-3.68354,7.346872443
55:25.8,1.42136E+12,-4.619843,-12.86365,-10.639276,17.32081506
55:25.8,1.42136E+12,-3.2271392,-18.667381,-15.081139,24.21417548
55:25.8,1.42136E+12,-2.990182,-13.526023,-9.134155,16.5929887
55:25.8,1.42136E+12,-5.036127,-7.6788816,-4.0468345,10.03517151
55:25.9,1.42136E+12,-6.2848306,-5.3711305,-1.4274316,8.389618555
55:25.9,1.42136E+12,-6.690038,-4.9124846,-2.05822,8.55133808
55:25.9,1.42136E+12,-7.168443,-5.493726,4.9129333,10.28127006
55:26.0,1.42136E+12,-11.804453,-11.447744,2.268832,16.59950457
55:26.0,1.42136E+12,-7.3932757,-17.101936,-3.7964053,19.01445328
55:26.0,1.42136E+12,-0.5266049,-9.98289,3.218607,10.50213485
55:26.0,1.42136E+12,-1.4563216,-4.82312,5.2200947,7.254843059
55:26.0,1.42136E+12,-2.6854157,-5.5166283,6.11673,8.663661534
55:26.0,1.42136E+12,-3.390749,-10.098899,5.292095,11.89500775
55:26.0,1.42136E+12,-1.8925145,-12.920681,1.357078,13.12887159
55:26.1,1.42136E+12,-0.9011261,-12.210408,-2.4291487,12.48226162
55:26.1,1.42136E+12,-2.6188042,-9.580827,-0.16016693,9.933581171
55:26.1,1.42136E+12,-4.5807743,-7.678133,1.3894107,9.04807613
55:26.1,1.42136E+12,-5.0823812,-7.1635036,1.689836,8.944379699
55:26.1,1.42136E+12,-4.205804,-7.46827,0.506846,8.586078089
55:26.2,1.42136E+12,-3.0054502,-8.205486,-0.5123845,8.753586081
55:26.2,1.42136E+12,-2.2309606,-9.065449,-0.13097763,9.336846679
55:26.2,1.42136E+12,-2.0541782,-9.2747135,0.64261365,9.521182221
55:26.2,1.42136E+12,-2.7497818,-9.120684,1.2252022,9.60464976
55:26.3,1.42136E+12,-3.2828233,-8.993748,1.4254857,9.679692216
55:26.3,1.42136E+12,-3.6570451,-8.76173,0.77014846,9.525493169
55:26.3,1.42136E+12,-3.7809875,-9.047635,0.28216323,9.809953193
55:26.3,1.42136E+12,-3.5675313,-9.422306,-0.07364685,10.07534385
55:26.3,1.42136E+12,-2.972369,-10.280771,-0.77299255,10.72971329
55:26.3,1.42136E+12,-2.199526,-10.761721,-1.060844,11.03530441
55:26.4,1.42136E+12,-1.685495,-10.775791,-0.41463774,10.91469145
55:26.4,1.42136E+12,-2.1151016,-10.331066,-0.39083725,10.55259841
55:26.4,1.42136E+12,-2.6391618,-11.403437,-2.0555255,11.88396969
55:26.4,1.42136E+12,-2.82762,-11.61794,-2.3547533,12.18674804
55:26.4,1.42136E+12,-3.0912218,-12.643757,-2.983446,13.35369587
55:26.5,1.42136E+12,-3.2759376,-14.72952,-3.6902761,15.53411292
55:26.5,1.42136E+12,-2.4276516,-14.143937,-3.5678306,14.78762528
55:26.5,1.42136E+12,-1.4096187,-14.114449,0.6129753,14.19790246
55:26.5,1.42136E+12,-2.9017158,-12.019405,4.1397915,13.03932225
55:26.5,1.42136E+12,-4.627477,-10.995685,4.204457,12.64895611
55:26.6,1.42136E+12,-6.068381,-11.852503,2.7436445,13.59539115
55:26.6,1.42136E+12,-8.968899,-12.376863,0.21285737,15.28637286
55:26.6,1.42136E+12,-8.258925,-12.068204,-4.023633,15.16710297
55:26.6,1.42136E+12,-6.5152016,-10.629994,0.30746064,12.47153384
55:26.6,1.42136E+12,-3.7390745,-9.814191,4.109704,11.27779633
55:26.7,1.42136E+12,-3.8673577,-8.101603,0.4923262,8.990818196
55:26.7,1.42136E+12,-3.6646793,-6.511609,0.56342834,7.493222113
55:26.7,1.42136E+12,-3.752846,-5.5380335,1.2305909,6.802060137
55:26.7,1.42136E+12,-4.255501,-4.467909,1.3078303,6.307290994
55:26.7,1.42136E+12,-4.4099793,-3.6167789,1.5115567,5.900322931
55:26.8,1.42136E+12,-4.243376,-3.1725028,1.6667839,5.554204035
55:26.8,1.42136E+12,-4.2772055,-2.5969496,1.8357825,5.329984193
55:26.8,1.42136E+12,-3.843258,-2.0498374,2.016756,4.799976061
55:26.8,1.42136E+12,-3.4028738,-2.384242,1.207988,4.32705385
55:26.8,1.42136E+12,-2.792443,-3.6905754,-0.6212082,4.669473666
55:26.9,1.42136E+12,-3.262316,-6.758895,-3.9246886,8.469270802
55:26.9,1.42136E+12,-4.9822392,-13.05106,-11.055261,17.8149283
55:26.9,1.42136E+12,-4.3884244,-18.692827,-15.341746,24.57741281
55:26.9,1.42136E+12,-1.9579284,-13.165572,-9.553433,16.38395104
55:26.9,1.42136E+12,-3.369044,-8.194559,-4.749773,10.05293978
55:27.0,1.42136E+12,-5.29943,-7.2726264,-1.9411633,9.205605251
55:27.0,1.42136E+12,-6.5138545,-6.248905,-1.5085629,9.151769019
55:27.0,1.42136E+12,-7.133566,-9.30974,-3.2528856,12.17128947
55:27.0,1.42136E+12,-6.3271923,-13.904435,2.4945626,15.47867945
55:27.0,1.42136E+12,-6.0576034,-12.739708,0.83571213,14.13128209
55:27.1,1.42136E+12,-5.206024,-6.0058107,2.0508852,8.208445538
55:27.1,1.42136E+12,-4.8084507,-3.4655933,4.2556505,7.296718182
55:27.1,1.42136E+12,-4.7969246,-3.8880148,5.392686,8.198061173
55:27.1,1.42136E+12,-4.355193,-7.572902,5.430108,10.28604023
55:27.1,1.42136E+12,-2.1859045,-12.797038,2.9183314,13.30635255
55:27.2,1.42136E+12,-0.22094055,-13.490846,-0.30880782,13.49618845
55:27.2,1.42136E+12,-1.4386582,-11.097921,0.11136841,11.19133553
55:27.2,1.42136E+12,-2.7632537,-8.770861,1.0499167,9.255587435
55:27.3,1.42136E+12,-3.630251,-7.940837,1.2723541,8.82351968
55:27.3,1.42136E+12,-3.9484892,-8.243657,0.49472123,9.153862397
55:27.3,1.42136E+12,-3.4121544,-8.353828,0.56058425,9.041210904
55:27.3,1.42136E+12,-3.044519,-8.825797,0.040415954,9.336242396
55:27.3,1.42136E+12,-2.4968078,-8.863369,0.41658372,9.217749249
55:27.3,1.42136E+12,-2.149081,-8.514594,1.0071057,8.839181072
55:27.3,1.42136E+12,-2.2670357,-8.844508,1.1117381,9.197865743
55:27.4,1.42136E+12,-3.046465,-8.8951025,0.6727011,9.426363257
55:27.4,1.42136E+12,-3.4621503,-9.751322,0.305365,10.35219847
55:27.4,1.42136E+12,-3.1813345,-9.682915,-0.2945874,10.1963971
55:27.4,1.42136E+12,-2.0275338,-10.46429,-1.2865746,10.73627183
55:27.4,1.42136E+12,-0.29264146,-11.437566,-1.5100598,11.54053013
55:27.5,1.42136E+12,-0.9500743,-11.878998,-0.8705896,11.94868867
55:27.5,1.42136E+12,-3.4100587,-11.391911,-0.8339159,11.92055168
55:27.5,1.42136E+12,-3.960614,-11.6369505,-2.0965402,12.46998641
55:27.5,1.42136E+12,-2.8960276,-12.358899,-2.6997857,12.97760391
55:27.6,1.42136E+12,-2.8357031,-13.255086,-3.206931,13.92921115
55:27.6,1.42136E+12,-2.7870543,-13.493091,-4.6545706,14.54290906
55:27.6,1.42136E+12,-1.502276,-14.03676,-2.828069,14.39741083
55:27.6,1.42136E+12,-1.9597248,-14.477294,3.7752993,15.08924941
55:27.6,1.42136E+12,-4.151467,-12.376713,5.8026834,14.28596646
55:27.6,1.42136E+12,-5.86196,-11.713891,3.6278558,13.59187828
55:27.7,1.42136E+12,-9.0374565,-12.076736,0.9193881,15.11186444
55:27.7,1.42136E+12,-9.850865,-11.711495,-2.8674371,15.56987
55:27.7,1.42136E+12,-7.0898566,-11.145523,-0.43319917,13.21652038
55:27.7,1.42136E+12,-3.5793567,-9.515712,1.5447876,10.28333302
55:27.7,1.42136E+12,-3.138673,-8.336763,0.77419007,8.941602529
55:27.8,1.42136E+12,-3.1292427,-7.499405,0.89139634,8.174828602
55:27.8,1.42136E+12,-2.9747639,-6.7162337,2.05822,7.628452329
55:27.8,1.42136E+12,-3.1037955,-5.461992,2.6382637,6.813760963
55:27.8,1.42136E+12,-3.410508,-4.218378,2.298171,5.891338364
55:27.9,1.42136E+12,-3.8106258,-3.3232393,1.6510665,5.318910511
55:27.9,1.42136E+12,-3.7943096,-2.2719755,1.4739848,4.661683087
55:27.9,1.42136E+12,-3.1018496,-1.8182689,1.4437478,3.874529706
55:27.9,1.42136E+12,-2.6057813,-1.7197738,0.9565109,3.265368464
55:27.9,1.42136E+12,-2.3815475,-2.9994626,-0.2906955,3.840969703
55:27.9,1.42136E+12,-3.2352223,-5.174589,-2.1891975,6.483488285
55:28.0,1.42136E+12,-4.998705,-10.29559,-8.174352,14.06436119
55:28.0,1.42136E+12,-5.96779,-18.213675,-17.229471,25.77221654
55:28.0,1.42136E+12,-3.1263986,-16.061451,-12.172088,20.39373195
55:28.0,1.42136E+12,-3.8511915,-9.818532,-6.818321,12.55885138
55:28.0,1.42136E+12,-6.1728635,-8.20414,-3.1278956,10.73293473
55:28.1,1.42136E+12,-8.127499,-7.536827,-1.9875668,11.26101341
55:28.1,1.42136E+12,-8.523575,-9.862391,-2.290836,13.23502991
55:28.1,1.42136E+12,-7.9933777,-10.919642,4.1426353,14.15252966
55:28.1,1.42136E+12,-6.718928,-7.8294687,3.1130762,10.77663292
55:28.1,1.42136E+12,-3.6290534,-5.5812936,3.5119967,7.526950754
55:28.2,1.42136E+12,-2.5891657,-6.4464946,4.9552956,8.533230697
55:28.2,1.42136E+12,-2.2926323,-8.188422,6.1593914,10.49973905
55:28.2,1.42136E+12,-1.9907103,-10.519075,4.1641903,11.48713834
55:28.2,1.42136E+12,-1.409469,-11.91657,-0.36449203,12.00516963
55:28.2,1.42136E+12,-1.8739531,-11.077115,0.35087037,11.23998607
55:28.3,1.42136E+12,-2.9255164,-9.3453665,0.8725355,9.83137017
55:28.3,1.42136E+12,-3.5125954,-8.169561,0.7586224,8.924996433
55:28.3,1.42136E+12,-3.585494,-8.080946,0.23575974,8.843813552
55:28.3,1.42136E+12,-3.6260595,-8.469089,-0.13501923,9.213685809
55:28.3,1.42136E+12,-3.1572344,-8.720416,0.17318985,9.2759786
55:28.4,1.42136E+12,-2.6951454,-8.766071,0.042212218,9.171128141
55:28.4,1.42136E+12,-2.3080504,-8.848549,0.104782104,9.145211607
55:28.4,1.42136E+12,-2.0483406,-8.741222,0.7997868,9.013563124
55:28.4,1.42136E+12,-2.1570144,-8.883277,0.9316626,9.18876034
55:28.4,1.42136E+12,-2.444866,-9.128168,0.51013917,9.463670681
55:28.5,1.42136E+12,-3.016677,-9.912836,0.013022918,10.36170002
55:28.5,1.42136E+12,-3.1925611,-9.425599,-1.1573932,10.01867865
55:28.5,1.42136E+12,-2.5777895,-9.980346,-2.1299207,10.52562906
55:28.6,1.42136E+12,-1.598975,-11.066338,-0.47047165,11.19115282
55:28.6,1.42136E+12,-1.2765454,-11.451487,0.20701951,11.52427784
55:28.6,1.42136E+12,-2.743495,-11.540252,-0.13591737,11.86265799
55:28.6,1.42136E+12,-3.1855257,-12.255015,-1.3015435,12.72898197
55:28.6,1.42136E+12,-2.2674847,-13.759537,-1.1054512,13.98886585
55:28.6,1.42136E+12,-2.738106,-14.798527,-3.0011091,15.34601843
55:28.6,1.42136E+12,-2.5692573,-14.838044,-3.7507503,15.51891622
55:28.7,1.42136E+12,-2.564018,-14.286441,-0.9942325,14.54871414
55:28.7,1.42136E+12,-4.3575883,-11.700269,1.0978171,12.53355787
55:28.7,1.42136E+12,-5.6794896,-9.979747,3.2894096,11.94454553
55:28.7,1.42136E+12,-6.4532304,-10.138567,3.2828233,12.45839686
55:28.7,1.42136E+12,-9.055569,-11.012898,1.1985576,14.30817223
55:28.8,1.42136E+12,-9.298364,-11.51705,-2.417323,14.99818203
55:28.8,1.42136E+12,-6.800359,-10.554552,-0.09834549,12.55599945
55:28.8,1.42136E+12,-3.0894256,-10.359058,2.3625371,11.06508991
55:28.8,1.42136E+12,-2.9967682,-9.717193,0.12933105,10.16962074
55:28.9,1.42136E+12,-3.2241454,-7.43459,1.2099339,8.193423098
55:28.9,1.42136E+12,-3.275339,-5.3808603,2.012565,6.613011493
55:28.9,1.42136E+12,-3.5875895,-3.9939945,2.7942393,6.052318874
55:29.1,1.42136E+12,-3.7323387,-3.2507899,2.5087829,5.549052062
55:29.1,1.42136E+12,-3.6579432,-3.0808933,1.8401234,5.124305427
55:29.1,1.42136E+12,-3.8112245,-2.5071363,0.9565109,4.661124083
55:29.1,1.42136E+12,-3.3673975,-1.3820759,0.8981323,3.749152083
55:29.1,1.42136E+12,-3.309468,-1.355581,0.06256989,3.57688318
55:29.1,1.42136E+12,-3.0894256,-3.1343322,-0.47825545,4.426885717
55:29.1,1.42136E+12,-3.794609,-7.148684,-4.1426353,9.091983701
55:29.1,1.42136E+12,-5.533094,-16.510666,-14.36832,22.57577996
55:29.1,1.42136E+12,-4.534371,-19.103275,-17.226328,26.11976287
55:29.1,1.42136E+12,-3.6992574,-9.847572,-10.029444,14.53440493
55:29.1,1.42136E+12,-6.18424,-7.242539,-4.509822,10.53744229
55:29.1,1.42136E+12,-7.9338017,-5.1105227,-0.16795075,9.438795428
55:29.1,1.42136E+12,-7.36214,-6.484665,-0.9568103,9.857356212
55:29.2,1.42136E+12,-7.417226,-10.56488,2.920876,13.23493285
55:29.2,1.42136E+12,-9.756711,-13.507462,1.7089962,16.75009275
55:29.2,1.42136E+12,-3.1870224,-10.654694,1.4691948,11.21776044
55:29.2,1.42136E+12,-1.8291962,-6.4795756,4.6759763,8.197293032
55:29.2,1.42136E+12,-2.1963825,-4.9943643,6.652616,8.603782336
55:29.3,1.42136E+12,-2.8849506,-7.147936,6.3824277,10.00756276
55:29.3,1.42136E+12,-2.6908045,-10.927426,2.9476702,11.63347873
55:29.3,1.42136E+12,-0.8975336,-13.289215,-1.6043637,13.41576628
55:29.3,1.42136E+12,-1.3181589,-11.375444,-0.34278718,11.45669115
55:29.3,1.42136E+12,-2.7204428,-8.871451,0.9488768,9.327583774
55:29.4,1.42136E+12,-3.9083724,-7.6712475,0.46807662,8.622210201
55:29.4,1.42136E+12,-4.656367,-7.5519457,-0.18621276,8.874024605
55:29.4,1.42136E+12,-3.8823266,-8.004904,0.17528549,8.898408447
55:29.4,1.42136E+12,-3.0193713,-8.68,0.19010468,9.192123957
55:29.4,1.42136E+12,-2.4557931,-9.027128,0.17139359,9.356780186
55:29.5,1.42136E+12,-1.9585272,-8.663085,0.54875886,8.898651965
55:29.5,1.42136E+12,-1.9929557,-8.556357,0.95890594,8.837568565
55:29.5,1.42136E+12,-2.407294,-8.788075,0.7316785,9.141153102
55:29.6,1.42136E+12,-2.567461,-9.390722,0.3543132,9.741819825
55:29.6,1.42136E+12,-2.506388,-9.937534,0.043559417,10.24882726
55:29.6,1.42136E+12,-2.1013303,-9.980196,-0.32422578,10.20416697
55:29.6,1.42136E+12,-1.5600559,-10.763517,-1.2865746,10.95181934
55:29.6,1.42136E+12,-2.2285657,-11.537707,-1.4751823,11.8431985
55:29.6,1.42136E+12,-3.1958542,-11.318413,-0.69470537,11.78145035
55:29.6,1.42136E+12,-3.6476147,-11.648327,-0.7674541,12.23019218
55:29.7,1.42136E+12,-3.0285022,-12.131073,-0.8969348,12.53551952
55:29.7,1.42136E+12,-2.6716442,-13.284425,-1.5980768,13.64432042
55:29.7,1.42136E+12,-2.749183,-14.350059,-3.6552489,15.06130954
55:29.7,1.42136E+12,-1.8010547,-14.220878,-3.686534,14.80093585
55:29.7,1.42136E+12,-1.4432987,-14.193185,0.81924635,14.2898837
55:29.8,1.42136E+12,-3.6682718,-11.6435375,3.8981936,12.814995
55:29.8,1.42136E+12,-5.2471886,-10.125244,3.3197966,11.87748306
55:29.8,1.42136E+12,-6.704558,-10.870544,2.2369483,12.96625476
55:29.9,1.42136E+12,-9.478739,-11.537108,-0.6343808,14.9450257
55:29.9,1.42136E+12,-8.619526,-11.788286,-2.595303,14.83224571
55:29.9,1.42136E+12,-6.186186,-9.977352,2.7768755,12.06347743
55:29.9,1.42136E+12,-3.5078056,-9.772578,1.4052777,10.47772811
55:29.9,1.42136E+12,-3.7001555,-8.447534,0.34413436,9.228781602
55:29.9,1.42136E+12,-3.2802787,-7.2082605,1.3906082,8.040711346
55:29.9,1.42136E+12,-3.345992,-5.360952,2.1932392,6.689227683
55:30.0,1.42136E+12,-3.4067657,-4.4671607,2.8782148,6.312344865
55:30.0,1.42136E+12,-3.6380346,-3.645519,2.4295976,5.694563111
55:30.0,1.42136E+12,-3.8960981,-3.4064662,1.6390915,5.428647467
55:30.0,1.42136E+12,-3.9327717,-2.6113198,1.3443544,4.90845934
55:30.0,1.42136E+12,-3.62576,-1.2277468,1.1085947,3.985282925
55:30.1,1.42136E+12,-3.2775843,-2.0359163,0.04445755,3.858690257
55:30.1,1.42136E+12,-2.7187963,-4.0079155,-1.2178674,4.993840304
55:30.1,1.42136E+12,-4.011508,-8.945398,-6.9687586,12.02813112
55:30.1,1.42136E+12,-5.6785913,-17.655785,-17.267641,25.3405716
55:30.2,1.42136E+12,-4.251609,-15.887063,-14.216986,21.73931095
55:30.2,1.42136E+12,-4.3860292,-7.379654,-7.698641,11.53107187
55:30.2,1.42136E+12,-7.0012407,-5.7296352,-1.4763799,9.166558159
55:30.2,1.42136E+12,-6.5825615,-3.9806721,-0.34548157,7.700339199
55:30.2,1.42136E+12,-6.015241,-6.0025177,2.5339308,8.86758977
55:30.2,1.42136E+12,-8.967552,-10.427466,4.4339294,14.45021681
55:30.3,1.42136E+12,-8.4978285,-15.6992035,-0.29428804,17.85398233
55:30.3,1.42136E+12,-1.5305672,-11.0387945,1.8268012,11.29313166
55:30.3,1.42136E+12,-0.90816146,-6.3665605,4.651128,7.936676982
55:30.3,1.42136E+12,-1.9896625,-5.6467075,6.964118,9.183844618
55:30.3,1.42136E+12,-2.8003767,-9.594298,6.481971,11.91254011
55:30.4,1.42136E+12,-2.3504124,-11.948603,1.7510587,12.30283539
55:30.4,1.42136E+12,-0.9048683,-11.940819,-1.6833993,12.09279861
55:30.4,1.42136E+12,-2.1188438,-10.042616,-0.32826737,10.26895295
55:30.4,1.42136E+12,-4.2525067,-8.147557,-0.33500335,9.196669264
55:30.4,1.42136E+12,-5.2394047,-6.687793,0.26794282,8.499984128
55:30.5,1.42136E+12,-4.7586045,-6.962621,0.7643106,8.467973705
55:30.5,1.42136E+12,-3.2192056,-7.597451,0.8789722,8.298020157
55:30.5,1.42136E+12,-1.9700532,-8.202642,0.44801834,8.447790588
55:30.5,1.42136E+12,-1.7428257,-9.2311535,-0.21989273,9.396807393
55:30.5,1.42136E+12,-2.0622616,-9.575138,-0.5653743,9.811006
55:30.6,1.42136E+12,-2.7854078,-9.533226,-0.30776,9.936579431
55:30.6,1.42136E+12,-3.1998959,-9.4049425,0.2402504,9.937303329
55:30.6,1.42136E+12,-2.997816,-9.439221,0.36179763,9.910433461
55:30.6,1.42136E+12,-2.10148,-10.394085,-1.8074913,10.75733452
55:30.6,1.42136E+12,-2.484234,-11.244467,-2.9548554,11.88867642
55:30.7,1.42136E+12,-2.739603,-11.361673,-0.38574782,11.69366663
55:30.7,1.42136E+12,-2.2664368,-11.447295,0.99049026,11.71146317
55:30.7,1.42136E+12,-1.5353572,-12.46413,-0.81954575,12.5850512
55:30.7,1.42136E+12,-1.4157559,-13.346097,-2.5346792,13.6582308
55:30.7,1.42136E+12,-1.8652711,-14.181509,-2.7900481,14.57322209
55:30.8,1.42136E+12,-1.8944604,-14.590459,-3.7012033,15.17133415
55:30.8,1.42136E+12,-1.7702188,-15.038926,-1.3079801,15.19913753
55:30.8,1.42136E+12,-3.7616775,-12.823683,1.739832,13.47679779
55:30.9,1.42136E+12,-5.5703664,-9.971214,5.284012,12.58470791
55:30.9,1.42136E+12,-6.838529,-10.9350605,5.0156198,13.83826105
55:30.9,1.42136E+12,-8.643176,-11.727962,2.5095315,14.78334645
55:30.9,1.42136E+12,-9.144484,-12.177776,-1.8200651,15.33728962
55:30.9,1.42136E+12,-7.1326675,-11.032957,-3.3846116,13.56674911
55:30.9,1.42136E+12,-5.76107,-9.193881,1.5572118,10.96094357
55:30.9,1.42136E+12,-3.7738023,-8.605156,2.5204587,9.728463684
55:31.0,1.42136E+12,-3.1451097,-7.3832464,1.7413288,8.211958866
55:31.0,1.42136E+12,-3.1641202,-5.313051,1.9098784,6.472078729
55:31.0,1.42136E+12,-2.8455825,-4.4110274,2.8999195,5.997002217
55:31.0,1.42136E+12,-2.9711714,-3.4795144,2.205813,5.079418366
55:31.0,1.42136E+12,-3.315755,-3.09691,1.5899936,4.807615045
55:31.1,1.42136E+12,-3.3391063,-2.4502547,1.6831,4.470593315
55:31.1,1.42136E+12,-3.4814603,-1.2903168,1.9531385,4.195263194
55:31.1,1.42136E+12,-3.599415,-1.8004559,1.229094,4.208099553
55:31.1,1.42136E+12,-3.2424073,-3.8296363,0.032931518,5.018007949
55:31.1,1.42136E+12,-3.5822008,-8.254584,-4.627627,10.11855974
55:31.2,1.42136E+12,-5.75628,-16.50438,-14.550043,22.74275863
55:31.2,1.42136E+12,-5.785918,-18.726208,-15.735727,25.13485264
55:31.2,1.42136E+12,-4.4795847,-8.643026,-9.945468,13.91692894
55:31.2,1.42136E+12,-5.5519547,-5.795947,-5.210066,9.568802973
55:31.2,1.42136E+12,-9.1588545,-6.6822543,-1.0394385,11.38497126
55:31.3,1.42136E+12,-8.692424,-8.587492,-1.3528867,12.29363885
55:31.3,1.42136E+12,-7.344477,-10.002649,3.5232234,12.89990049
55:31.3,1.42136E+12,-7.1765265,-10.99763,3.503764,13.59142231
55:31.3,1.42136E+12,-4.5011396,-8.982222,2.1969814,10.28432288
55:31.3,1.42136E+12,-2.5424628,-6.4822702,3.884572,7.973320742
55:31.4,1.42136E+12,-2.560725,-6.5436425,6.1378365,9.330037867
55:31.4,1.42136E+12,-3.0573921,-8.460257,5.4021163,10.49316232
55:31.4,1.42136E+12,-2.0926483,-11.434571,0.950224,11.66325497
55:31.4,1.42136E+12,-0.94019485,-11.899505,-0.8735834,11.96851426
55:31.5,1.42136E+12,-1.7781523,-10.458302,0.7590715,10.63551108
55:31.5,1.42136E+12,-2.941084,-8.623717,2.0216959,9.33304475
55:31.5,1.42136E+12,-3.6796482,-8.296797,0.9846524,9.129413545
55:31.5,1.42136E+12,-3.82305,-8.313711,-0.667462,9.174911848
55:31.5,1.42136E+12,-3.0376332,-8.458012,-0.51118696,9.0014718
55:31.5,1.42136E+12,-2.2924829,-8.308023,-0.14295273,8.619696021
55:31.6,1.42136E+12,-1.7877324,-8.745863,0.53169435,8.942527922
55:31.6,1.42136E+12,-1.717229,-9.065149,1.3287867,9.321559737
55:31.6,1.42136E+12,-1.8040484,-9.234147,0.5574408,9.425221573
55:31.6,1.42136E+12,-2.5004003,-9.183104,-0.14130615,9.518475097
55:31.6,1.42136E+12,-3.2150145,-9.3806925,-0.24069947,9.919256336
55:31.7,1.42136E+12,-3.074307,-10.005493,0.0291893,10.46719187
55:31.7,1.42136E+12,-2.5126748,-10.552306,-0.24459137,10.85009316
55:31.7,1.42136E+12,-1.371448,-10.694061,-2.1249812,10.98905616
55:31.7,1.42136E+12,-1.368604,-11.970457,-0.98255676,12.08843809
55:31.7,1.42136E+12,-2.6002429,-11.944262,-0.05269043,12.22413327
55:31.8,1.42136E+12,-3.3738341,-12.624447,-2.1612058,13.2450077
55:31.8,1.42136E+12,-2.8442354,-13.155094,-3.6187248,13.93704927
55:31.8,1.42136E+12,-2.950664,-13.587095,-3.7443137,14.39914767
55:31.8,1.42136E+12,-2.8538156,-14.249318,-4.229754,15.13532774
55:31.8,1.42136E+12,-1.4374608,-14.47969,-0.93286014,14.5807388
55:31.9,1.42136E+12,-2.7533743,-12.7195,3.311863,13.42889373
55:31.9,1.42136E+12,-4.576433,-10.851384,4.770879,12.70659514
55:31.9,1.42136E+12,-6.613547,-11.7335005,2.8136988,13.75975795
55:31.9,1.42136E+12,-10.093361,-12.659025,0.05733078,16.1904335
55:31.9,1.42136E+12,-9.323213,-12.087065,-3.8788838,15.75008509
55:32.0,1.42136E+12,-7.272776,-10.4592,-1.1217673,12.78852991
55:32.0,1.42136E+12,-3.974984,-9.742491,4.3595343,11.389564
55:32.0,1.42136E+12,-3.43356,-8.757838,1.2855268,9.494295122
55:32.0,1.42136E+12,-3.098856,-7.0561767,1.081501,7.782170812
55:32.0,1.42136E+12,-2.9779074,-5.4649854,2.0416045,6.549973041
55:32.1,1.42136E+12,-3.1591804,-4.6940885,2.9081526,6.361779562
55:32.1,1.42136E+12,-3.1573842,-3.6678228,2.600542,5.494071147
55:32.1,1.42136E+12,-3.3629067,-3.041076,1.8149757,4.883791714
55:32.2,1.42136E+12,-3.3645535,-2.181713,1.7775536,4.38631835
55:32.2,1.42136E+12,-3.3178506,-0.77583665,1.6786094,3.798392374
55:32.2,1.42136E+12,-3.1292427,-0.95097244,0.87747526,3.386217844
55:32.2,1.42136E+12,-2.7410998,-2.973716,-0.56851774,4.084094439
55:32.2,1.42136E+12,-3.408562,-8.484806,-6.7946706,11.39200493
55:32.2,1.42136E+12,-5.709876,-17.18232,-17.091608,24.89895316
55:32.2,1.42136E+12,-3.7971537,-16.926052,-13.943504,22.25603101
55:32.3,1.42136E+12,-4.700675,-8.653056,-7.634424,12.46018272
55:32.3,1.42136E+12,-7.9415855,-6.837332,-2.7945387,10.84561366
55:32.3,1.42136E+12,-8.451575,-5.641319,-1.068029,10.2173522
55:32.3,1.42136E+12,-6.8304462,-8.743169,-0.60549086,11.11146339
55:32.3,1.42136E+12,-7.0563264,-10.548564,4.9302974,13.61513045
55:32.4,1.42136E+12,-6.166726,-10.722802,2.7860065,12.67946468
55:32.4,1.42136E+12,-3.585943,-7.100634,2.7388544,8.413044266
55:32.4,1.42136E+12,-3.1252012,-6.3003983,4.384682,8.287782425
55:32.4,1.42136E+12,-2.7647507,-6.9466043,5.82349,9.47692954
55:32.5,1.42136E+12,-2.897824,-9.419013,3.9722896,10.62517174
55:32.5,1.42136E+12,-1.1246114,-12.634776,0.37482056,12.69026421
55:32.5,1.42136E+12,-0.49457154,-12.600946,0.8276289,12.63777713
55:32.5,1.42136E+12,-1.5396981,-10.278076,0.53019744,10.40627819
55:32.5,1.42136E+12,-2.8642936,-8.072863,0.25985962,8.569878754
55:32.5,1.42136E+12,-3.8145177,-8.226892,-0.09430389,9.068692876
55:32.6,1.42136E+12,-3.7523968,-8.194559,-0.29877868,9.017790619
55:32.6,1.42136E+12,-2.726131,-8.0067,-0.15881974,8.459566114
55:32.6,1.42136E+12,-2.0441492,-8.322543,0.15702347,8.571343203
55:32.6,1.42136E+12,-1.8380278,-8.577463,0.44247985,8.783336845
55:32.6,1.42136E+12,-2.3475683,-8.756042,0.38724473,9.073549852
55:32.7,1.42136E+12,-2.8437862,-9.253008,0.20372635,9.682292158
55:32.7,1.42136E+12,-3.2726445,-9.501342,-0.11091934,10.04977636
55:32.7,1.42136E+12,-3.2527359,-9.743388,-0.8228389,10.30490002
55:32.7,1.42136E+12,-2.6298811,-10.374027,-1.5673906,10.81634985
55:32.8,1.42136E+12,-2.1056712,-11.047177,-1.7522562,11.38175613
55:32.8,1.42136E+12,-1.9501446,-11.457923,-0.25162673,11.62541954
55:32.8,1.42136E+12,-1.8452128,-11.86328,0.49666718,12.01619328
55:32.8,1.42136E+12,-1.8627264,-12.558734,-0.24459137,12.69847921
55:32.8,1.42136E+12,-1.705254,-13.053605,-1.7266594,13.27726807
55:32.8,1.42136E+12,-2.4391778,-13.620326,-2.9147387,14.14067079
55:32.9,1.42136E+12,-3.080444,-14.501843,-4.144731,15.39387478
55:32.9,1.42136E+12,-2.4556434,-13.904585,-3.010839,14.43720264
55:32.9,1.42136E+12,-2.8000772,-12.643907,0.7367679,12.97118512
55:32.9,1.42136E+12,-4.11629,-10.659932,4.6291237,12.32910296
55:33.0,1.42136E+12,-5.5678215,-9.968969,4.42899,12.24732345
55:33.0,1.42136E+12,-7.8790154,-11.529774,2.0145109,14.109317
55:33.0,1.42136E+12,-10.159074,-12.038416,-1.4238391,15.81637007
55:33.0,1.42136E+12,-7.943382,-11.556418,-4.1854463,14.63441408
55:33.0,1.42136E+12,-5.5036054,-9.581875,3.7094362,11.65598206
55:33.0,1.42136E+12,-3.189717,-9.744885,1.1620336,10.31927324
55:33.1,1.42136E+12,-3.3419504,-7.9646373,0.920885,8.686317343
55:33.1,1.42136E+12,-3.0285022,-6.2930636,1.7935703,7.210504107
55:33.1,1.42136E+12,-3.2183075,-4.9422727,2.4724085,6.395026692
55:33.1,1.42136E+12,-3.437751,-3.5604959,2.7455904,5.659817103
55:33.1,1.42136E+12,-3.4817595,-3.4334102,2.121688,5.330339087
55:33.2,1.42136E+12,-3.5375936,-2.8273206,1.6576529,4.822460305
55:33.2,1.42136E+12,-3.2967443,-1.6977695,1.4355148,3.976386173
55:33.2,1.42136E+12,-2.8951294,-1.2591815,0.9286688,3.290856732
55:33.2,1.42136E+12,-2.5625212,-2.4691155,-0.11870316,3.560496692
55:33.2,1.42136E+12,-2.8322604,-5.624254,-3.3096175,7.113894856
55:33.3,1.42136E+12,-4.884343,-14.322516,-13.298196,20.14530437
55:33.3,1.42136E+12,-4.0222855,-18.865868,-17.82164,26.26234202
55:33.3,1.42136E+12,-3.2078292,-12.507541,-10.0312395,16.35097905
55:33.3,1.42136E+12,-4.493356,-7.447613,-5.0097823,10.03768431
55:33.3,1.42136E+12,-7.063811,-5.27039,-1.2014017,8.894818865
55:33.4,1.42136E+12,-6.524033,-5.6503,-1.2412189,8.71949087
55:33.4,1.42136E+12,-6.2686644,-8.847053,4.228407,11.63812381
55:33.4,1.42136E+12,-9.82467,-14.153518,4.5767326,17.82674097
55:33.5,1.42136E+12,-3.5747163,-13.88812,0.5266049,14.35046294
55:33.5,1.42136E+12,-2.3391857,-7.734865,2.9457242,8.601000952
55:33.5,1.42136E+12,-2.7008336,-4.8644342,6.12152,8.272256605
55:33.5,1.42136E+12,-3.9166055,-4.901258,6.5716343,9.085620837
55:33.5,1.42136E+12,-4.4563828,-9.820179,3.9830673,11.49609013
55:33.5,1.42136E+12,-1.5491285,-13.545332,1.3985417,13.70517191
55:33.5,1.42136E+12,-0.065413974,-11.6932335,-1.431623,11.78072719
55:33.6,1.42136E+12,-1.5521224,-8.99734,0.540526,9.146222137
55:33.6,1.42136E+12,-3.1304402,-7.8406954,0.17034577,8.444239331
55:33.6,1.42136E+12,-3.6935692,-7.415879,0.1950444,8.287083751
55:33.6,1.42136E+12,-3.4440382,-8.004155,0.728535,8.744064251
55:33.6,1.42136E+12,-2.6610165,-8.892109,0.42661285,9.291534308
55:33.7,1.42136E+12,-2.262096,-9.108259,0.29159364,9.389488121
55:33.7,1.42136E+12,-2.2547612,-9.2537565,-0.13247451,9.52541374
55:33.7,1.42136E+12,-2.740052,-9.158405,-0.45759842,9.570457848
55:33.8,1.42136E+12,-3.3340168,-8.855885,0.14355148,9.463771668
55:33.8,1.42136E+12,-3.3421001,-9.161998,0.34952316,9.758791261
55:33.8,1.42136E+12,-2.3710694,-9.681717,-0.30970597,9.972639167
55:33.8,1.42136E+12,-1.0591974,-10.857223,-1.2976515,10.98567658
55:33.8,1.42136E+12,-0.6502478,-12.298126,-0.7677534,12.33921272
55:33.8,1.42136E+12,-1.142574,-12.441228,-0.33096176,12.49796644
55:33.8,1.42136E+12,-2.4078927,-12.066258,-0.6902147,12.3235111
55:33.9,1.42136E+12,-3.2706985,-12.383299,-1.7537531,12.92745964
55:33.9,1.42136E+12,-3.1784904,-13.25793,-2.566563,13.87309463
55:33.9,1.42136E+12,-3.0991552,-14.201268,-4.1641903,15.12022674
55:33.9,1.42136E+12,-2.0520828,-13.966557,-3.595972,14.56731866
55:33.9,1.42136E+12,-2.0348685,-14.261593,1.3693525,14.47096579
55:34.0,1.42136E+12,-3.6068995,-11.066487,5.248236,12.76796145
55:34.0,1.42136E+12,-4.7178893,-10.519974,4.373904,12.33123549
55:34.0,1.42136E+12,-7.25152,-12.061618,1.6657361,14.17186818
55:34.0,1.42136E+12,-9.8888855,-12.694352,-1.5096108,16.16216427
55:34.0,1.42136E+12,-7.4856334,-12.178675,-3.5595977,14.73178767
55:34.1,1.42136E+12,-5.8899517,-9.963132,2.807412,11.90953788
55:34.1,1.42136E+12,-2.8413913,-10.166409,2.3285577,10.80978989
55:34.1,1.42136E+12,-3.0915213,-8.0999565,0.25566834,8.673647765
55:34.1,1.42136E+12,-2.8801606,-5.984854,1.8881736,6.904998336
55:34.1,1.42136E+12,-3.1365774,-4.677623,2.5394692,6.177959091
55:34.2,1.42136E+12,-3.2513888,-3.7564385,3.328628,5.98014412
55:34.2,1.42136E+12,-3.4688864,-3.2379167,2.4604335,5.345185724
55:34.2,1.42136E+12,-3.7899687,-2.5719516,1.9270926,4.969153214
55:34.2,1.42136E+12,-3.8365219,-1.2678635,1.695075,4.381741366
55:34.3,1.42136E+12,-3.522475,-0.4020639,1.0174342,3.688449248
55:34.3,1.42136E+12,-2.883304,-1.8480569,0.19863693,3.430482895
55:34.3,1.42136E+12,-2.740651,-5.191504,-1.9905607,6.198807433
55:34.3,1.42136E+12,-5.056635,-13.207635,-12.439732,18.83502355
55:34.3,1.42136E+12,-4.735253,-18.714233,-18.336868,26.62491063
55:34.3,1.42136E+12,-3.2260914,-12.131672,-10.813213,16.56836463
55:34.4,1.42136E+12,-5.0807347,-6.7636847,-4.595893,9.627228484
55:34.4,1.42136E+12,-7.797136,-4.8713202,-1.3019925,9.28548732
55:34.5,1.42136E+12,-6.7231193,-5.129234,0.6822812,8.483801164
55:34.5,1.42136E+12,-7.7733355,-7.571106,5.857619,12.33118369
55:34.5,1.42136E+12,-10.637329,-14.5172615,3.1680121,18.27402392
55:34.5,1.42136E+12,-1.8363812,-13.269007,1.2784914,13.45635103
55:34.5,1.42136E+12,-1.4278808,-7.8049197,3.9977367,8.8846786
55:34.5,1.42136E+12,-2.5776398,-4.8413825,6.7177305,8.672434175
55:34.5,1.42136E+12,-3.4117053,-6.2924647,6.8008075,9.873491161
55:34.5,1.42136E+12,-3.18822,-10.652897,3.225792,11.57819914
55:34.6,1.42136E+12,-0.76760375,-13.213173,-0.882415,13.26483368
55:34.6,1.42136E+12,-0.65638506,-11.314372,-0.549657,11.34671661
55:34.6,1.42136E+12,-2.427053,-9.047336,0.7740404,9.399149616
55:34.6,1.42136E+12,-3.9161563,-7.9430823,-0.14669494,8.857220557
55:34.6,1.42136E+12,-4.6461883,-7.4351883,-0.3980223,8.776531919
55:34.7,1.42136E+12,-3.8239481,-7.641759,0.047151946,8.545249147
55:34.7,1.42136E+12,-2.6470954,-8.757239,0.32033387,9.154177339
55:34.7,1.42136E+12,-1.902843,-9.221574,0.26824218,9.419670503
55:34.7,1.42136E+12,-1.8049465,-8.714278,0.44098297,8.910159309
55:34.7,1.42136E+12,-2.2406905,-8.918155,0.6933582,9.221438506
55:34.8,1.42136E+12,-2.7499316,-9.124725,0.6887178,9.554949625
55:34.8,1.42136E+12,-2.647245,-9.343121,-0.46373567,9.721978548
55:34.8,1.42136E+12,-2.1631517,-9.880803,-1.9763402,10.30608625
55:34.8,1.42136E+12,-1.2591815,-11.032957,-2.106719,11.30265204
55:34.8,1.42136E+12,-1.6772621,-11.793824,-0.07304809,11.9127171
55:34.9,1.42136E+12,-2.6351202,-11.51241,0.45086244,11.81874441
55:34.9,1.42136E+12,-3.0374835,-12.340338,-0.9913884,12.7472781
55:34.9,1.42136E+12,-2.2540128,-13.282479,-1.9538869,13.61332054
55:34.9,1.42136E+12,-2.0445983,-14.332695,-1.8676661,14.59776369
55:34.9,1.42136E+12,-2.346221,-15.02755,-3.7796402,15.67219487
55:35.0,1.42136E+12,-1.6810043,-14.382242,-2.74589,14.73820112
55:35.0,1.42136E+12,-2.444267,-13.109139,0.82583266,13.36061249
55:35.0,1.42136E+12,-3.9219942,-10.406509,4.0968304,11.85164492
55:35.0,1.42136E+12,-5.322781,-9.825867,3.7567377,11.78951814
55:35.1,1.42136E+12,-8.396789,-11.871963,0.8003856,14.56331652
55:35.1,1.42136E+12,-10.017768,-12.607083,-3.0400283,16.38706775
55:35.1,1.42136E+12,-7.533085,-11.869417,-3.8502932,14.57584259
55:35.1,1.42136E+12,-4.0420446,-10.889405,5.7146664,12.94506384
55:35.1,1.42136E+12,-2.305805,-10.018517,1.6643889,10.41429834
55:35.1,1.42136E+12,-2.782414,-7.2426887,0.5840854,7.780714815
55:35.2,1.42136E+12,-2.4797432,-5.9812617,2.0255878,6.784366131
55:35.2,1.42136E+12,-2.7137067,-4.565057,2.7014322,5.958329078
55:35.2,1.42136E+12,-3.2352223,-3.2082784,2.9518616,5.428922594
55:35.2,1.42136E+12,-3.337759,-2.6644592,2.090403,4.754972416
55:35.2,1.42136E+12,-3.477718,-2.1496797,1.4813195,4.348557549
55:35.3,1.42136E+12,-3.1258,-0.92717195,1.315165,3.515669558
55:35.3,1.42136E+12,-3.3061748,-1.0746154,0.8861572,3.58759873
55:35.3,1.42136E+12,-3.2403116,-2.9157865,0.22917344,4.36508312
55:35.3,1.42136E+12,-3.4015265,-6.6401916,-2.9599447,8.026443773
55:35.3,1.42136E+12,-5.2298245,-15.362703,-13.463452,21.08620989
55:35.4,1.42136E+12,-4.415518,-19.007324,-17.636774,26.30267975
55:35.4,1.42136E+12,-3.5293608,-10.367291,-10.848091,15.41486908
55:35.4,1.42136E+12,-5.716313,-7.1462893,-4.6090655,10.2464223
55:35.4,1.42136E+12,-9.247919,-6.4839168,-1.0768607,11.34569574
55:35.4,1.42136E+12,-8.056696,-7.475904,-0.1646576,10.9921155
55:35.5,1.42136E+12,-6.40548,-10.499915,4.7692323,13.19181435
55:35.5,1.42136E+12,-7.2211337,-10.176588,4.3535466,13.2159405
55:35.5,1.42136E+12,-3.431614,-7.107819,1.8265017,8.10143037
55:35.5,1.42136E+12,-2.3311024,-5.4658837,4.190087,7.270952626
55:35.5,1.42136E+12,-3.0496082,-6.725963,6.0026674,9.516864209
55:35.6,1.42136E+12,-2.9696746,-9.799971,6.5062203,12.1321598
55:35.6,1.42136E+12,-0.5734575,-14.082116,1.0629396,14.13381354
55:35.6,1.42136E+12,0.49741563,-12.731625,-2.2586532,12.939985
55:35.6,1.42136E+12,-1.2135265,-9.900711,0.7373666,10.00202151
55:35.6,1.42136E+12,-2.8993208,-8.017628,1.6643889,8.68669156
55:35.7,1.42136E+12,-4.440516,-7.664212,0.07005432,8.857947592
55:35.8,1.42136E+12,-4.4488983,-8.132289,-1.1954141,9.346434365
55:35.8,1.42136E+12,-3.1232553,-8.278235,-1.0229727,8.906759878
55:35.8,1.42136E+12,-2.3285577,-8.269853,-0.103285216,8.592049665
55:35.8,1.42136E+12,-1.9245479,-8.430768,0.6601273,8.672802416
55:35.8,1.42136E+12,-2.227069,-8.682096,1.1596385,9.037886298
55:35.8,1.42136E+12,-2.941533,-8.916508,0.8852591,9.430822603
55:35.8,1.42136E+12,-3.3579671,-9.504036,0.13082795,10.08066264
55:35.8,1.42136E+12,-3.194956,-10.088571,-0.7827223,10.61129883
55:35.8,1.42136E+12,-2.2993684,-10.181078,-2.1909938,10.66498467
55:35.9,1.42136E+12,-1.1602373,-11.178604,-2.6854157,11.55503334
55:35.9,1.42136E+12,-1.3054353,-11.825409,-0.35670823,11.90259216
55:35.9,1.42136E+12,-2.1065693,-11.895762,0.4843927,12.09055102
55:35.9,1.42136E+12,-2.18321,-12.821138,-1.7066011,13.11718235
55:35.9,1.42136E+12,-1.5217355,-13.687088,-2.741998,14.04174526
55:36.0,1.42136E+12,-2.5734484,-14.578783,-3.3747323,15.18395102
55:36.0,1.42136E+12,-1.9356248,-14.593902,-3.788472,15.2013532
55:36.1,1.42136E+12,-1.4870077,-14.418766,1.0445279,14.53282641
55:36.1,1.42136E+12,-3.597469,-11.609858,5.0928593,13.178308
55:36.1,1.42136E+12,-5.3866982,-10.225387,4.485872,12.39750396
55:36.1,1.42136E+12,-7.988588,-11.922557,1.68789,14.45039364
55:36.1,1.42136E+12,-10.277478,-13.114827,-1.8685642,16.76653731
55:36.1,1.42136E+12,-8.186176,-11.553874,-4.0737786,14.73435285
55:36.1,1.42136E+12,-5.8877063,-10.725496,0.68377805,12.25434218
55:36.1,1.42136E+12,-4.003275,-10.552905,4.0891967,12.00464678
55:36.2,1.42136E+12,-3.041076,-8.731643,1.0289602,9.303144189
55:36.2,1.42136E+12,-2.8663893,-6.3475504,1.4307247,7.110172773
55:36.2,1.42136E+12,-2.5899143,-5.776338,2.9133916,6.968614452
55:36.2,1.42136E+12,-3.099305,-4.229455,2.7075696,5.901263782
55:36.2,1.42136E+12,-3.504662,-3.0828393,2.3858886,5.242043332
55:36.3,1.42136E+12,-3.6905754,-2.2526655,2.0056791,4.76629807
55:36.3,1.42136E+12,-3.5569034,-1.1029065,1.8779947,4.170710807
55:36.3,1.42136E+12,-3.3702416,0.040715333,1.6343014,3.745814631
55:36.3,1.42136E+12,-3.1952555,-1.387315,0.5942642,3.533758701
55:36.4,1.42136E+12,-2.7195446,-4.1954756,-1.3305831,5.173817713
55:36.4,1.42136E+12,-4.4426117,-11.279494,-10.835667,16.25962678
55:36.4,1.42136E+12,-3.6375856,-18.435064,-17.953217,25.98849004
55:36.4,1.42136E+12,-2.705474,-14.643898,-11.462414,18.79229291
55:36.4,1.42136E+12,-4.2448726,-6.998247,-6.9470534,10.73573264
55:36.4,1.42136E+12,-8.509504,-6.6618967,-2.2230272,11.03333023
55:36.5,1.42136E+12,-8.094717,-5.244943,-0.5417235,9.660607369
55:36.5,1.42136E+12,-7.7954893,-8.909323,0.37272492,11.84418058
55:36.5,1.42136E+12,-7.451355,-12.645703,3.8731956,15.18018906
55:36.5,1.42136E+12,-5.3016753,-12.932507,0.09520203,13.9773589
55:36.5,1.42136E+12,-1.7163309,-8.602012,2.962639,9.258381719
55:36.6,1.42136E+12,-1.941313,-6.7551527,4.8701224,8.550957628
55:36.6,1.42136E+12,-2.2903872,-6.12661,6.43422,9.174988318
55:36.6,1.42136E+12,-2.710264,-9.616452,5.1522856,11.24134009
55:36.6,1.42136E+12,-1.1837384,-13.042378,0.5164261,13.10616482
55:36.6,1.42136E+12,-0.31000534,-12.322525,-0.083376616,12.32670586
55:36.7,1.42136E+12,-1.8269508,-9.345217,0.35595977,9.528774179
55:36.7,1.42136E+12,-3.3883538,-7.7107654,0.7288344,8.45387746
55:36.7,1.42136E+12,-4.4021955,-7.808063,0.064964905,8.963782319
55:36.8,1.42136E+12,-3.8960981,-7.975116,-0.17842895,8.87771888
55:36.8,1.42136E+12,-2.599195,-8.481214,-0.27018815,8.87467223
55:36.8,1.42136E+12,-1.7333953,-8.706644,-0.028440857,8.87756261
55:36.8,1.42136E+12,-1.4953903,-8.567584,0.7283853,8.727555952
55:36.8,1.42136E+12,-2.0344193,-8.567883,0.8955876,8.851528576
55:36.8,1.42136E+12,-2.6586213,-8.974737,0.6749464,9.38454709
55:36.8,1.42136E+12,-3.2030392,-9.383388,0.09984238,9.915513047
55:36.9,1.42136E+12,-3.334466,-9.919272,-0.71326673,10.48901187
55:36.9,1.42136E+12,-2.8970754,-10.490635,-2.329007,11.12972337
55:36.9,1.42136E+12,-2.0818708,-11.143277,-2.896327,11.70023583
55:36.9,1.42136E+12,-1.7935703,-11.718532,-0.6593788,11.87331744
55:36.9,1.42136E+12,-2.0064275,-11.802806,0.36209702,11.97760807
55:37.0,1.42136E+12,-2.2773643,-12.543166,-1.1573932,12.8006625
55:37.0,1.42136E+12,-1.5581099,-13.626015,-1.1135345,13.75994006
55:37.0,1.42136E+12,-2.0549269,-15.23936,-1.4409037,15.44464377
55:37.0,1.42136E+12,-1.8884729,-14.891334,-3.4170942,15.39463189
55:37.0,1.42136E+12,-2.0441492,-13.406272,-1.0835967,13.60444254
55:37.1,1.42136E+12,-3.29405,-10.915152,2.5744963,11.6884276
55:37.1,1.42136E+12,-4.156407,-9.467213,4.79438,11.39692593
55:37.1,1.42136E+12,-5.338798,-10.395133,2.9624894,12.05561685
55:37.1,1.42136E+12,-8.692574,-12.372222,-0.97192883,15.15181064
55:37.1,1.42136E+12,-7.3449264,-12.919634,-4.276008,15.46444732
55:37.2,1.42136E+12,-4.6690907,-12.328663,0.38155654,13.18870444
55:37.2,1.42136E+12,-2.6211991,-11.41167,5.033283,12.74483561
55:37.2,1.42136E+12,-3.4440382,-8.960217,0.9782158,9.649030727
55:37.2,1.42136E+12,-3.4630485,-7.546108,0.90307206,8.351765682
55:37.2,1.42136E+12,-3.575914,-6.0576034,1.87545,7.280043447
55:37.3,1.42136E+12,-3.507955,-4.9361353,2.484234,6.545425773
55:37.3,1.42136E+12,-3.6269577,-4.0519238,2.5234525,5.995058061
55:37.3,1.42136E+12,-3.79895,-3.2852182,2.2267694,5.49392225
55:37.3,1.42136E+12,-3.7236567,-2.5710535,1.8791922,4.899724344
55:37.3,1.42136E+12,-3.5691779,-1.2458593,1.5795153,4.097080041
55:37.4,1.42136E+12,-3.4307158,-1.0702744,0.6288423,3.648388799
55:37.4,1.42136E+12,-3.0499077,-2.7047255,-0.9372011,4.182800845
55:37.4,1.42136E+12,-3.4275723,-5.609585,-4.229455,7.816903821
55:37.4,1.42136E+12,-5.1668057,-13.060191,-11.874956,18.39236391
55:37.4,1.42136E+12,-2.0179536,-18.694176,-17.646055,25.7861903
55:37.5,1.42136E+12,-2.5427623,-13.691578,-10.224788,17.27632015
55:37.5,1.42136E+12,-4.5729904,-9.226214,-4.2224193,11.12942455
55:37.5,1.42136E+12,-7.9522133,-7.6953473,-2.5662634,11.35965555
55:37.5,1.42136E+12,-8.784333,-10.562934,-2.3552024,13.9386893
55:37.5,1.42136E+12,-7.453301,-10.63254,5.817203,14.22822735
55:37.6,1.42136E+12,-6.354286,-8.708141,4.108506,11.53639856
55:37.6,1.42136E+12,-3.6568954,-5.0091834,2.7657986,6.79076168
55:37.6,1.42136E+12,-2.5017476,-5.7877145,4.7792616,7.911872195
55:37.6,1.42136E+12,-2.229314,-7.3826475,7.081474,10.46998563
55:37.7,1.42136E+12,-2.595752,-11.4818735,5.3179913,12.91713509
55:37.7,1.42136E+12,0.13112731,-15.007043,1.2828324,15.06234354
55:37.7,1.42136E+12,0.5255571,-12.043506,-2.5728498,12.32646759
55:37.7,1.42136E+12,-1.2569362,-9.069191,0.30596375,9.160989456
55:37.7,1.42136E+12,-3.3994308,-8.012987,2.0146606,8.934368907
55:37.7,1.42136E+12,-5.147945,-8.047116,1.0922786,9.615117585
55:37.8,1.42136E+12,-4.63571,-8.125104,0.24324417,9.357686142
55:37.8,1.42136E+12,-3.182382,-8.298892,-0.36793488,8.895759647
55:37.8,1.42136E+12,-1.9390677,-8.289462,0.2773732,8.517752032
55:37.8,1.42136E+12,-1.6582516,-8.278535,0.9993219,8.501916512
55:37.8,1.42136E+12,-2.205364,-8.3234415,1.8223104,8.801370573
55:37.9,1.42136E+12,-3.0418246,-8.550369,1.7372873,9.240112234
55:37.9,1.42136E+12,-3.621569,-9.18969,1.1573932,9.945135662
55:37.9,1.42136E+12,-3.4602044,-9.936487,-0.45969406,10.53176657
55:37.9,1.42136E+12,-2.5426126,-10.604697,-3.418591,11.42852754
55:37.9,1.42136E+12,-1.6525635,-11.790831,-3.8705013,12.51940263
55:38.0,1.42136E+12,-1.5602056,-12.287947,0.09250763,12.38694638
55:38.0,1.42136E+12,-2.8363018,-11.956536,1.1781999,12.34469587
55:38.1,1.42136E+12,-2.9166846,-12.607383,-2.1989274,13.125869
55:38.1,1.42136E+12,-1.8342856,-13.383369,-3.6741097,13.99922325
55:38.1,1.42136E+12,-1.9309845,-14.861695,-2.6547294,15.21992995
55:38.1,1.42136E+12,-1.798959,-14.966178,-3.2846196,15.42762014
55:38.1,1.42136E+12,-0.55040544,-14.453943,-1.284928,14.52137922
55:38.1,1.42136E+12,-1.8693128,-12.1219425,4.105812,12.93419934
55:38.1,1.42136E+12,-3.7741017,-10.009385,6.6349525,12.58786028
55:38.1,1.42136E+12,-5.935607,-10.596464,3.1150222,12.53873371
55:38.2,1.42136E+12,-8.850495,-12.816498,-1.5483801,15.65219996
55:38.2,1.42136E+12,-7.66047,-13.165422,-4.1115003,15.7770584
55:38.2,1.42136E+12,-5.3140993,-11.299403,-1.7875828,12.61394513
55:38.2,1.42136E+12,-3.3281791,-11.513607,6.7928743,13.77617739
55:38.2,1.42136E+12,-3.3667986,-9.59849,3.3994308,10.72485305
55:38.3,1.42136E+12,-3.004552,-7.7555223,1.0150392,8.37888796
55:38.3,1.42136E+12,-2.956951,-6.202502,2.4230113,7.285984768
55:38.3,1.42136E+12,-3.2850688,-5.1196537,2.7430458,6.672842819
55:38.3,1.42136E+12,-3.5890865,-4.334387,2.646796,6.21884086
55:38.3,1.42136E+12,-3.993695,-3.3891022,2.5288413,5.816412279
55:38.4,1.42136E+12,-3.9184017,-2.738705,2.2861958,5.29915731
55:38.4,1.42136E+12,-3.6073484,-1.5341597,1.4676979,4.18577897
55:38.4,1.42136E+12,-3.2081287,-1.5941849,0.3820056,3.602699478
55:38.4,1.42136E+12,-3.0100906,-2.687661,-0.99363375,4.155896426
55:38.4,1.42136E+12,-3.7348833,-5.7886124,-3.6754568,7.808096405
55:38.5,1.42136E+12,-5.1989884,-12.47865,-9.985286,16.80631199
55:38.5,1.42136E+12,-3.3268318,-18.61499,-14.183306,23.63793205
55:38.5,1.42136E+12,-2.6140141,-14.010415,-10.823543,17.8961974
55:38.5,1.42136E+12,-3.3693435,-8.838969,-6.24172,11.33308948
55:38.5,1.42136E+12,-5.721402,-7.023694,-1.932631,9.262925069
55:38.6,1.42136E+12,-5.7296352,-4.114943,-0.59411454,7.079155847
55:38.6,1.42136E+12,-4.8927255,-4.859794,2.9092002,7.484638024
55:38.6,1.42136E+12,-8.79032,-9.659264,3.7357814,13.58407779
55:38.7,1.42136E+12,-10.518926,-16.448694,1.0377918,19.55209325
55:38.7,1.42136E+12,-1.0921289,-12.777729,-0.21240829,12.82607583
55:38.7,1.42136E+12,-0.592917,-5.7676563,3.9517822,7.016693831
55:38.7,1.42136E+12,-1.7396823,-2.888244,6.4538293,7.281508123
55:38.7,1.42136E+12,-3.6375856,-6.800209,5.702841,9.591520574
55:38.7,1.42136E+12,-2.5493486,-12.896881,5.598508,14.28887713
55:38.7,1.42136E+12,0.31943572,-14.544804,-2.0357666,14.69005474
55:38.8,1.42136E+12,0.613125,-11.1039095,-3.018922,11.52330762
55:38.8,1.42136E+12,-2.1321661,-8.797955,-0.58363634,9.07142634
55:38.8,1.42136E+12,-4.258794,-7.5041947,0.2665956,8.632574219
55:38.8,1.42136E+12,-4.585564,-7.3528595,0.85816544,8.707949698
55:38.8,1.42136E+12,-3.4569113,-7.536228,0.9821077,8.349221744
55:38.9,1.42136E+12,-2.6964927,-7.8736267,-0.09729767,8.323132651
55:38.9,1.42136E+12,-2.8521688,-8.601712,-0.94423646,9.111306091
55:38.9,1.42136E+12,-3.4226327,-8.900492,-0.30611342,9.540800693
55:38.9,1.42136E+12,-3.565286,-9.195079,0.7458989,9.890253144
55:39.0,1.42136E+12,-3.6242633,-9.392967,1.1545491,10.13390829
55:39.0,1.42136E+12,-2.6550288,-9.905052,-0.4324507,10.26383197
55:39.0,1.42136E+12,-1.7212706,-11.131003,-3.1249018,11.68875577
55:39.0,1.42136E+12,-1.7859361,-12.075089,-2.4080424,12.44170448
55:39.0,1.42136E+12,-1.8607805,-11.867921,0.16660355,12.01406716
55:39.0,1.42136E+12,-2.088457,-12.630884,-0.024998017,12.80240244
55:39.1,1.42136E+12,-1.3678555,-13.675562,-1.2491524,13.8004495
55:39.1,1.42136E+12,-1.1229647,-14.91214,-1.369053,15.01689965
55:39.1,1.42136E+12,-1.660497,-15.624808,-1.9061362,15.82798883
55:39.1,1.42136E+12,-2.180815,-14.181958,-2.1983285,14.5160785
55:39.1,1.42136E+12,-3.1442115,-11.0669365,1.3406122,11.58276265
55:39.2,1.42136E+12,-4.1194334,-9.464219,5.6399717,11.76224696
55:39.2,1.42136E+12,-5.5616846,-10.14201,4.037554,12.25130788
55:39.2,1.42136E+12,-8.234975,-12.487183,-0.13442047,14.95869718
55:39.2,1.42136E+12,-8.0105915,-12.700339,-2.9344976,15.29965565
55:39.2,1.42136E+12,-5.1711464,-11.298804,-2.444267,12.66405022
55:39.3,1.42136E+12,-2.8774662,-11.297157,4.9262557,12.65596947
55:39.3,1.42136E+12,-2.987188,-10.753787,3.597469,11.72642359
55:39.3,1.42136E+12,-2.9846435,-8.7527485,1.744622,9.41076028
55:39.3,1.42136E+12,-2.9385393,-6.9668126,1.8458116,7.783219866
55:39.3,1.42136E+12,-3.0708642,-5.62635,2.5469537,6.897317914
55:39.4,1.42136E+12,-3.3790731,-4.9201183,2.5460556,6.489075298
55:39.4,1.42136E+12,-3.8371208,-3.8278399,2.1588106,5.834065267
55:39.4,1.42136E+12,-3.9064264,-3.2943494,2.0065773,5.489923283
55:39.4,1.42136E+12,-3.5170863,-2.7644513,1.8067429,4.824562875
55:39.5,1.42136E+12,-3.4711318,-1.4724879,1.2338841,3.967297135
55:39.5,1.42136E+12,-3.2588732,-2.0981867,-0.13831238,3.878372375
55:39.5,1.42136E+12,-2.9731174,-3.9377115,-2.074087,5.352273892
55:39.5,1.42136E+12,-3.9957907,-8.352631,-7.5047936,11.91867085
55:39.5,1.42136E+12,-5.808222,-17.367634,-15.104341,23.73839233
55:39.5,1.42136E+12,-1.9558328,-18.43731,-14.607822,23.6039858
55:39.6,1.42136E+12,-2.3697221,-9.705218,-8.1617775,12.90044384
55:39.6,1.42136E+12,-4.7909374,-7.84309,-2.6997857,9.578934426
55:39.7,1.42136E+12,-6.363417,-5.0278945,-2.2167404,8.407540486
55:39.7,1.42136E+12,-5.506599,-5.8071737,0.82493454,8.045272893
55:39.7,1.42136E+12,-7.8594065,-8.380772,5.078639,12.56185432
55:39.7,1.42136E+12,-8.618927,-14.274167,1.2482543,16.72112092
55:39.7,1.42136E+12,-1.8887722,-11.2655735,1.7181271,11.55130155
55:39.7,1.42136E+12,-0.8152048,-7.24209,3.7378771,8.190491539
55:39.7,1.42136E+12,-2.3219714,-5.7464004,6.181246,8.753311993
55:39.7,1.42136E+12,-3.559448,-7.377109,5.2898498,9.75058553
55:39.8,1.42136E+12,-2.5560846,-11.635604,2.6879604,12.21253373
55:39.8,1.42136E+12,-0.07634125,-13.518987,-0.18636246,13.52048699
55:39.8,1.42136E+12,-0.49457154,-11.088491,-0.49397278,11.11050146
55:39.8,1.42136E+12,-2.2378464,-8.745863,0.5803432,9.046263005
55:39.8,1.42136E+12,-4.0987763,-7.8490777,0.033081207,8.854890302
55:39.9,1.42136E+12,-4.8921266,-7.622898,0.0199086,9.057696889
55:39.9,1.42136E+12,-3.9119651,-7.7353144,0.13501923,8.669301587
55:39.9,1.42136E+12,-2.415078,-7.839797,0.41418868,8.213803687
55:40.0,1.42136E+12,-1.6193326,-8.177794,0.23650818,8.339933387
55:40.0,1.42136E+12,-1.8594333,-8.55965,0.8797206,8.803352126
55:40.0,1.42136E+12,-2.583777,-9.25705,1.1645782,9.681173517
55:40.0,1.42136E+12,-2.8767178,-9.643546,0.5604346,10.07906601
55:40.0,1.42136E+12,-2.767894,-10.072853,-1.1705658,10.51160449
55:40.0,1.42136E+12,-1.5685881,-10.935659,-4.1549096,11.80306656
55:40.0,1.42136E+12,-1.1160791,-12.090957,-2.566862,12.41070724
55:40.1,1.42136E+12,-1.6106507,-12.140803,1.2154725,12.30734198
55:40.1,1.42136E+12,-1.626817,-12.163856,0.6593788,12.28986195
55:40.1,1.42136E+12,-1.3862672,-13.072765,-2.8036697,13.44170693
55:40.1,1.42136E+12,-1.1436218,-13.476176,-2.4019053,13.73624182
55:40.1,1.42136E+12,-1.8061441,-14.260245,-2.6508377,14.61655515
55:40.2,1.42136E+12,-1.3789325,-14.473402,-3.687432,14.99926582
55:40.2,1.42136E+12,-0.87927157,-14.589261,-0.20971389,14.6172376
55:40.2,1.42136E+12,-3.0421238,-12.109368,5.4365444,13.6179046
55:40.2,1.42136E+12,-5.527705,-10.327773,5.071604,12.76477908
55:40.3,1.42136E+12,-7.749235,-11.527977,2.2155428,14.06604161
55:40.3,1.42136E+12,-9.604627,-12.817845,-1.8922151,16.12843725
55:40.3,1.42136E+12,-7.754175,-12.806768,-3.6708164,15.41477958
55:40.3,1.42136E+12,-4.432133,-10.920391,1.1526031,11.84175816
55:40.3,1.42136E+12,-3.5732195,-10.313703,3.4552648,11.44898345
55:40.3,1.42136E+12,-3.3150065,-8.919353,1.7745597,9.67952417
55:40.4,1.42136E+12,-2.8803103,-6.9957023,1.8089882,7.778719458
55:40.4,1.42136E+12,-2.5979974,-5.5269566,2.6740394,6.666882814
55:40.4,1.42136E+12,-2.691104,-4.5443997,2.9961693,6.072119881
55:40.4,1.42136E+12,-3.2841706,-3.570974,2.975213,5.691179512
55:40.4,1.42136E+12,-3.4491274,-2.8113039,2.0344193,4.89272637
55:40.5,1.42136E+12,-3.4242792,-1.9351758,1.7082477,4.288205175
55:40.5,1.42136E+12,-3.2078292,-0.5522017,1.5521224,3.60613073
55:40.5,1.42136E+12,-3.4221835,-1.4956897,0.78856015,3.8171003
55:40.5,1.42136E+12,-3.044519,-4.644841,-0.5210664,5.578095916
55:40.5,1.42136E+12,-3.9261854,-10.115365,-6.837631,12.82531631
55:40.6,1.42136E+12,-6.1343937,-17.926271,-17.039217,25.48169724
55:40.6,1.42136E+12,-3.3985326,-15.737225,-15.22499,22.15875888
55:40.7,1.42136E+12,-2.8897407,-6.961274,-8.236173,11.16442935
55:40.7,1.42136E+12,-4.4577303,-6.643934,-3.333867,8.667634487
55:40.7,1.42136E+12,-6.6868944,-5.726342,-0.69829786,8.831374147
55:40.7,1.42136E+12,-5.2000365,-6.0583515,1.6308587,8.148846704
55:40.7,1.42136E+12,-3.8309834,-10.525362,1.8980529,11.36055825
55:40.7,1.42136E+12,-7.118148,-14.230457,1.2711567,15.96213572
55:40.7,1.42136E+12,-4.461173,-14.072536,-1.3024416,14.8200772
55:40.7,1.42136E+12,-1.6772621,-6.530919,3.1485527,7.441740068
55:40.8,1.42136E+12,-2.652634,-4.113596,5.4175344,7.30122032
55:40.8,1.42136E+12,-3.8570292,-4.916376,6.146518,8.765107572
55:40.8,1.42136E+12,-4.054319,-9.051976,4.697681,10.97469721
55:40.8,1.42136E+12,-1.5118561,-13.489798,1.5343094,13.66069048
55:40.8,1.42136E+12,0.59097105,-12.875924,-1.0674303,12.93360248
55:40.9,1.42136E+12,-1.3406122,-9.930349,0.6936575,10.04441303
55:40.9,1.42136E+12,-3.186873,-8.315508,0.8162526,8.942600356
55:40.9,1.42136E+12,-4.440516,-7.9174857,0.27138564,9.081762622
55:40.9,1.42136E+12,-4.3402243,-8.241262,0.03891907,9.314368525
55:40.9,1.42136E+12,-3.1611264,-8.121212,-0.047451325,8.714875564
55:41.0,1.42136E+12,-1.9758911,-7.9944253,0.18351837,8.237029835
55:41.0,1.42136E+12,-1.6805552,-8.231233,0.42302033,8.411682868
55:41.0,1.42136E+12,-1.6414865,-9.12712,0.5590874,9.290391603
55:41.0,1.42136E+12,-1.9342777,-9.688752,0.19309846,9.881833461
55:41.0,1.42136E+12,-2.3143373,-10.109528,-0.51717454,10.3839387
55:41.1,1.42136E+12,-1.9218535,-10.346784,-2.217339,10.75481531
55:41.1,1.42136E+12,-1.511407,-10.590327,-3.5069075,11.25778741
55:41.1,1.42136E+12,-1.1506572,-11.1601925,-0.7012917,11.24125076
55:41.1,1.42136E+12,-0.7189549,-11.136242,2.8936327,11.52848178
55:41.1,1.42136E+12,-1.2243041,-11.984379,0.83376616,12.07557148
55:41.2,1.42136E+12,-1.6825012,-12.937147,-2.3816972,13.26171423
55:41.2,1.42136E+12,-1.8854791,-13.511652,-1.91871,13.77683633
55:41.2,1.42136E+12,-2.7996283,-14.168187,-2.8163934,14.71419428
55:41.3,1.42136E+12,-2.4165747,-14.506484,-3.4001794,15.09434103
55:41.3,1.42136E+12,-2.212549,-14.46981,-1.3939013,14.70420808
55:41.3,1.42136E+12,-3.329676,-12.030632,3.6545005,13.0068529
55:41.3,1.42136E+12,-5.050198,-10.429861,5.762866,12.94206803
55:41.3,1.42136E+12,-6.8491573,-11.587554,3.5552568,13.92200468
55:41.3,1.42136E+12,-9.877958,-12.389885,-0.54247195,15.85489137
55:41.3,1.42136E+12,-8.79526,-12.08452,-4.397256,15.57973307
55:41.4,1.42136E+12,-5.9962306,-10.367591,-1.0469229,12.02238629
55:41.4,1.42136E+12,-3.9838157,-10.189461,3.6339931,11.52830468
55:41.4,1.42136E+12,-3.319946,-9.29043,1.726809,10.01578756
55:41.4,1.42136E+12,-2.0082238,-7.118896,1.099763,7.478042641
55:41.4,1.42136E+12,-2.4059467,-5.7230487,1.8035994,6.464892632
55:41.5,1.42136E+12,-2.91414,-4.882397,2.7749295,6.326946035
55:41.5,1.42136E+12,-3.3232393,-3.8529878,2.6903553,5.755644714
55:41.5,1.42136E+12,-3.4569113,-3.5175352,1.8185682,5.256470291
55:41.5,1.42136E+12,-3.393144,-2.5918603,1.7515078,4.61507807
55:41.6,1.42136E+12,-3.201692,-1.2522959,1.4166541,3.718331013
55:41.6,1.42136E+12,-3.2608192,-1.5655943,0.5547464,3.659476866
55:41.6,1.42136E+12,-2.861749,-3.386857,-0.56492525,4.469848791
55:41.6,1.42136E+12,-2.722239,-7.6706486,-5.911058,10.05932611
55:41.6,1.42136E+12,-4.4069858,-17.07604,-16.85989,24.39812609
55:41.6,1.42136E+12,-2.600542,-18.18703,-14.910793,23.66141642
55:41.7,1.42136E+12,-1.6360977,-7.999066,-8.056247,11.47017821
55:41.7,1.42136E+12,-4.221821,-6.3045897,-4.2882824,8.715560211
55:41.7,1.42136E+12,-8.396339,-6.024372,-0.96040285,10.37853266
55:41.7,1.42136E+12,-7.604786,-5.3106565,-0.75562865,9.306278377
55:41.7,1.42136E+12,-7.272327,-7.36229,4.1814046,11.16128122
55:41.8,1.42136E+12,-9.2609415,-13.177547,1.2217593,16.15256878
55:41.8,1.42136E+12,-4.746629,-14.986535,0.4022136,15.72540918
55:41.8,1.42136E+12,-1.2582834,-10.722353,2.9023147,11.17924692
55:41.8,1.42136E+12,-1.924997,-6.6036677,5.0985475,8.562080772
55:41.8,1.42136E+12,-2.8178902,-5.7193065,5.7086787,8.558036254
55:41.9,1.42136E+12,-3.1379247,-7.930209,4.0083647,9.423469307
55:41.9,1.42136E+12,-2.1290226,-11.244467,0.34338593,11.44939689
55:41.9,1.42136E+12,-1.3754897,-12.451707,0.2282753,12.52952867
55:41.9,1.42136E+12,-1.26472,-11.0161915,1.1115885,11.14412943
55:42.0,1.42136E+12,-2.0236418,-8.957223,0.7445517,9.213106275
55:42.0,1.42136E+12,-2.5126748,-7.952962,-0.16316071,8.342047749
55:42.0,1.42136E+12,-2.9237201,-8.104746,-0.085472256,8.616400203
55:42.0,1.42136E+12,-2.623145,-8.521929,0.46358597,8.928553944
55:42.0,1.42136E+12,-2.107318,-8.586893,0.07694,8.842026934
55:42.0,1.42136E+12,-1.7910255,-8.707692,0.29548553,8.894885272
55:42.1,1.42136E+12,-1.8651215,-9.051078,0.3662883,9.248505733
55:42.1,1.42136E+12,-1.9477496,-9.1765175,0.1911525,9.382896206
55:42.1,1.42136E+12,-1.9333795,-9.715846,-0.20627105,9.90848967
55:42.1,1.42136E+12,-1.7163309,-9.788295,-0.3356021,9.943296211
55:42.1,1.42136E+12,-0.86954176,-10.38241,-0.84888476,10.45328396
55:42.2,1.42136E+12,0.18666184,-11.373948,-1.5461348,11.48007267
55:42.2,1.42136E+12,0.33260834,-11.853251,-1.4997313,11.95237974
55:42.2,1.42136E+12,-1.0999128,-11.486813,0.29832962,11.54320933
55:42.2,1.42136E+12,-3.028652,-11.820768,1.287323,12.27030927
55:42.2,1.42136E+12,-3.9116657,-11.615695,-1.9423609,12.40960373
55:42.3,1.42136E+12,-2.4849825,-12.692855,-3.315755,13.35207614
55:42.3,1.42136E+12,-1.5500267,-14.008919,-3.7021015,14.57250664
55:42.3,1.42136E+12,-0.95890594,-13.990806,-3.9320233,14.56444164
55:42.3,1.42136E+12,0.07708969,-14.285394,-0.9330098,14.31603757
55:42.3,1.42136E+12,-1.1478131,-13.761633,4.6268783,14.56392875
55:42.4,1.42136E+12,-3.4988241,-11.276501,4.0803647,12.49202229
55:42.4,1.42136E+12,-5.109325,-11.161689,2.3309526,12.49487268
55:42.4,1.42136E+12,-8.96396,-12.374167,0.60010207,15.29158953
55:42.4,1.42136E+12,-8.4729805,-12.718302,-2.458188,15.47867218
55:42.4,1.42136E+12,-5.6073394,-11.743829,1.2725039,13.07589541
55:42.5,1.42136E+12,-3.2159126,-9.623637,0.89229447,10.18590557
55:42.5,1.42136E+12,-2.9648845,-9.152866,0.943488,9.66724706
55:42.5,1.42136E+12,-2.7048752,-8.162676,1.8220111,8.790071318
55:42.5,1.42136E+12,-2.366878,-6.1010127,1.981729,6.837522743
55:42.6,1.42136E+12,-2.6830206,-4.8654823,2.6051824,6.136651602
55:42.6,1.42136E+12,-3.032843,-3.8010457,2.8285182,5.625531111
55:42.6,1.42136E+12,-3.1606774,-2.8229797,2.330354,4.836284295
55:42.6,1.42136E+12,-3.42862,-1.8282981,1.7360898,4.255833272
55:42.6,1.42136E+12,-3.3389566,-0.88196594,1.6516653,3.828118775
55:42.6,1.42136E+12,-3.6943176,-1.4281801,0.8972342,4.061121783
55:42.7,1.42136E+12,-3.4615517,-3.4917889,-0.7247928,4.96993506
55:42.7,1.42136E+12,-4.3334885,-9.0132065,-6.043682,11.68516607
55:42.7,1.42136E+12,-7.1365595,-17.159567,-16.314425,24.72936886
55:42.7,1.42136E+12,-4.3210645,-17.053587,-16.528929,24.13921958
55:42.7,1.42136E+12,-3.6115398,-7.9035645,-9.563911,12.92199463
55:42.8,1.42136E+12,-5.58788,-6.4849644,-2.1844075,8.834636511
55:42.8,1.42136E+12,-5.998027,-5.655539,-0.9063652,8.293548526
55:42.8,1.42136E+12,-5.334906,-7.178323,0.02350113,8.94371821
55:42.8,1.42136E+12,-7.3637867,-9.693393,5.2545233,13.25885506
55:42.8,1.42136E+12,-8.83358,-14.448255,2.2424867,17.08253362
55:42.9,1.42136E+12,-2.0913012,-10.712772,1.8339862,11.06799575
55:42.9,1.42136E+12,-1.2509487,-7.3476205,4.525988,8.719917834
55:42.9,1.42136E+12,-1.5905924,-6.1255617,7.203021,9.588326332
55:42.9,1.42136E+12,-2.804418,-8.281528,5.974975,10.5900327
55:42.9,1.42136E+12,-1.4019846,-12.112661,2.4134312,12.43007512
55:43.0,1.42136E+12,0.7890093,-13.10899,-0.3275189,13.13679653
55:43.0,1.42136E+12,-0.7643106,-10.379565,-0.24474105,10.41054458
55:43.0,1.42136E+12,-2.773732,-8.62207,0.5510042,9.073989526
55:43.0,1.42136E+12,-4.3834844,-7.6603203,-0.3966751,8.834749217
55:43.0,1.42136E+12,-4.4518924,-7.8447366,-0.09939331,9.020483207
55:43.1,1.42136E+12,-3.4200878,-7.5871224,0.08187973,8.322747813
55:43.1,1.42136E+12,-1.968257,-7.4500074,0.29039612,7.711094331
55:43.1,1.42136E+12,-1.4256353,-8.141121,0.34578094,8.272233774
55:43.1,1.42136E+12,-1.4156063,-9.116792,0.09699829,9.226551156
55:43.1,1.42136E+12,-1.8787432,-9.6405525,-0.47960266,9.833613132
55:43.2,1.42136E+12,-2.6463468,-9.723181,-0.56627244,10.09277289
55:43.2,1.42136E+12,-2.7427464,-9.964029,-0.6044431,10.35228879
55:43.2,1.42136E+12,-1.6643889,-10.582543,-1.8022522,10.86317264
55:43.2,1.42136E+12,-0.6915619,-11.837384,-1.9962487,12.02443041
55:43.2,1.42136E+12,-1.314716,-12.224628,0.3544629,12.30022975
55:43.3,1.42136E+12,-1.9963984,-11.8300495,0.73691756,12.01993033
55:43.3,1.42136E+12,-1.8917661,-12.577445,-1.9658619,12.86994618
55:43.3,1.42136E+12,-1.0907817,-13.227543,-2.408641,13.48922718
55:43.3,1.42136E+12,-1.5459851,-13.603262,-2.5237517,13.92149883
55:43.3,1.42136E+12,-2.3980134,-14.237642,-4.252357,15.05136067
55:43.4,1.42136E+12,-1.4922469,-13.766722,-1.6706758,13.94778094
55:43.4,1.42136E+12,-1.714834,-13.352683,4.4014473,14.16359902
55:43.4,1.42136E+12,-3.3813186,-11.017389,6.303392,13.13578801
55:43.4,1.42136E+12,-5.623506,-10.925331,3.3162038,12.72728898
55:43.4,1.42136E+12,-7.940687,-12.648996,0.55833894,14.9453455
55:43.5,1.42136E+12,-9.290131,-13.726306,-3.2689023,16.89389631
55:43.5,1.42136E+12,-7.110214,-11.263627,-3.8110747,13.85455617
55:43.5,1.42136E+12,-4.466412,-9.393716,4.599635,11.3730989
55:43.6,1.42136E+12,-3.1260993,-9.425899,2.044299,10.13899537
55:43.6,1.42136E+12,-2.4492068,-7.770491,0.95636123,8.203278072
55:43.6,1.42136E+12,-2.0898042,-5.9993744,1.9287392,6.639262737
55:43.6,1.42136E+12,-2.424508,-4.5951443,2.7327173,5.870377673
55:43.6,1.42136E+12,-2.9888346,-3.4328115,2.857408,5.37420762
55:43.6,1.42136E+12,-3.304079,-2.678979,2.4975562,4.93271259
55:43.6,1.42136E+12,-3.264711,-2.4167244,2.1128564,4.578543099
55:43.7,1.42136E+12,-3.282973,-1.1975098,1.5368541,3.817572784
55:43.7,1.42136E+12,-3.54418,-1.0235715,0.67734146,3.750693528
55:43.7,1.42136E+12,-3.2750394,-2.9591963,-0.16016693,4.416829096
55:43.7,1.42136E+12,-3.8245468,-7.837402,-5.2862573,10.19786961
55:43.7,1.42136E+12,-6.675668,-16.743132,-16.024477,24.11806119
55:43.8,1.42136E+12,-4.737049,-18.472786,-16.087048,24.94948034
55:43.8,1.42136E+12,-3.3337176,-8.009844,-10.254276,13.4321052
55:43.8,1.42136E+12,-5.338948,-5.63593,-3.4600549,8.49941484
55:43.8,1.42136E+12,-5.965395,-5.6015015,-2.893483,8.679573747
55:43.9,1.42136E+12,-5.9218354,-7.3030133,3.0548475,9.886062463
55:43.9,1.42136E+12,-8.203241,-10.535542,4.436624,14.07033904
55:43.9,1.42136E+12,-8.811875,-14.569353,1.5501764,17.09731659
55:43.9,1.42136E+12,-3.0274544,-9.455537,2.4989035,10.23802612
55:44.0,1.42136E+12,-2.2989194,-6.7541046,5.82828,9.212589599
55:44.0,1.42136E+12,-2.4712112,-6.8820887,7.8963795,10.76210197
55:44.0,1.42136E+12,-1.705254,-9.340426,7.241192,11.94095099
55:44.0,1.42136E+12,0.4022136,-13.249547,0.22273682,13.25752176
55:44.0,1.42136E+12,0.8879535,-12.021651,-1.1638298,12.11045226
55:44.0,1.42136E+12,-1.567241,-9.837243,0.41837996,9.97008706
55:44.1,1.42136E+12,-3.3103662,-8.520282,0.29518616,9.145537962
55:44.1,1.42136E+12,-3.9462438,-8.32853,0.1565744,9.217470783
55:44.1,1.42136E+12,-4.3159747,-8.194709,-0.8587642,9.301525098
55:44.1,1.42136E+12,-3.7187169,-7.9171863,-1.3781841,8.854946962
55:44.1,1.42136E+12,-2.7818153,-7.82872,-0.4340973,8.319602975
55:44.1,1.42136E+12,-2.0773802,-8.310418,0.69470537,8.594252229
55:44.2,1.42136E+12,-1.7842896,-8.713829,1.7774038,9.070483421
55:44.2,1.42136E+12,-1.4452446,-8.980575,1.7339941,9.259924126
55:44.2,1.42136E+12,-1.1768527,-9.754765,0.6399193,9.846315006
55:44.2,1.42136E+12,-0.8081694,-10.474618,-0.5204677,10.51863331
55:44.2,1.42136E+12,-0.37766466,-10.725646,-2.3888824,10.99494756
55:44.3,1.42136E+12,-1.2240046,-11.446097,-3.3819172,11.9978618
55:44.3,1.42136E+12,-2.615062,-11.52169,-1.3736933,11.89432314
55:44.3,1.42136E+12,-2.9072542,-11.495345,0.89109695,11.89071644
55:44.3,1.42136E+12,-2.404899,-12.700489,-0.8044272,12.95117999
55:44.3,1.42136E+12,-2.194287,-13.359119,-2.610272,13.78747532
55:44.4,1.42136E+12,-2.4795938,-15.123501,-3.6983593,15.76535853
55:44.4,1.42136E+12,-1.945654,-14.913637,-4.2472677,15.62822514
55:44.4,1.42136E+12,-1.0196795,-13.797857,-0.3598517,13.84016247
55:44.4,1.42136E+12,-1.1725117,-12.700639,4.849166,13.64534447
55:44.4,1.42136E+12,-2.625091,-10.418634,4.51057,11.65265115
55:44.5,1.42136E+12,-5.511838,-11.633957,1.2025992,12.92963876
55:44.5,1.42136E+12,-9.521251,-13.425731,-1.5102096,16.5283153
55:44.5,1.42136E+12,-8.245604,-13.140724,-3.1190639,15.823943
55:44.5,1.42136E+12,-5.5125866,-12.283307,2.938689,13.78057092
55:44.5,1.42136E+12,-3.309468,-10.470277,2.5676107,11.27705208
55:44.6,1.42136E+12,-3.061284,-8.167017,0.5852829,8.741520605
55:44.6,1.42136E+12,-2.5327332,-6.652915,1.4111155,7.257221398
55:44.6,1.42136E+12,-1.9281404,-5.0225058,2.3179297,5.857993514
55:44.6,1.42136E+12,-2.7180479,-3.4108071,3.1748977,5.394568089
55:44.6,1.42136E+12,-2.9678783,-2.530937,3.1611264,5.020623848
55:44.7,1.42136E+12,-3.0999038,-2.0237916,2.5840764,4.514707837
55:44.7,1.42136E+12,-3.103646,-0.8696915,2.0190015,3.803333913
55:44.7,1.42136E+12,-3.195405,-0.16525635,0.9193881,3.329143622
55:44.7,1.42136E+12,-3.126698,-1.5917898,-0.02679428,3.508668278
55:44.8,1.42136E+12,-3.340603,-5.698799,-3.355572,7.409170122
55:44.8,1.42136E+12,-6.51116,-15.38815,-14.602434,22.19057105
55:44.8,1.42136E+12,-5.5688696,-19.010767,-17.549805,26.46539677
55:44.8,1.42136E+12,-4.2914257,-9.856853,-10.302176,14.88988636
55:44.9,1.42136E+12,-5.8454943,-5.319638,-2.9635372,8.441025104
55:44.9,1.42136E+12,-6.586603,-3.699856,-2.772684,8.047362926
55:44.9,1.42136E+12,-6.148464,-5.8209453,3.2395632,9.065416895
55:44.9,1.42136E+12,-8.173154,-11.753109,3.5182836,14.74158529
55:44.9,1.42136E+12,-9.129814,-15.56583,2.298171,18.19148584
55:44.9,1.42136E+12,-2.6312284,-9.331445,2.8416908,10.10318936
55:44.9,1.42136E+12,-1.9857706,-6.2530966,5.808072,8.762317178
55:45.0,1.42136E+12,-2.3079007,-6.3704524,7.850724,10.37029106
55:45.0,1.42136E+12,-1.9743942,-9.692494,7.7968364,12.59497242
55:45.0,1.42136E+12,-0.18935624,-14.120586,2.7569668,14.38845616
55:45.0,1.42136E+12,1.0645862,-12.773088,-2.4590864,13.05113891
55:45.0,1.42136E+12,-1.1247611,-10.09845,-0.44382706,10.17058319
55:45.1,1.42136E+12,-2.9987142,-8.3869095,0.72898406,8.936663559
55:45.1,1.42136E+12,-4.393963,-7.67005,-0.3252736,8.845472331
55:45.1,1.42136E+12,-4.8473697,-7.7483373,-1.0223739,9.19668268
55:45.1,1.42136E+12,-3.276237,-7.785909,-0.7566765,8.480959094
55:45.2,1.42136E+12,-1.5103592,-7.6660085,-0.105680235,7.814092369
55:45.2,1.42136E+12,-0.9888437,-8.0740595,0.520318,8.151010949
55:45.2,1.42136E+12,-1.5605049,-8.901689,0.47406417,9.049860741
55:45.2,1.42136E+12,-2.2180874,-9.25256,0.04790039,9.51483435
55:45.2,1.42136E+12,-2.7175987,-9.620194,-0.8741821,10.03482285
55:45.2,1.42136E+12,-2.5078847,-10.224937,-1.3443544,10.61348723
55:45.3,1.42136E+12,-1.4028827,-11.182796,-2.80831,11.61505968
55:45.3,1.42136E+12,-0.7364685,-12.067006,-2.5156686,12.34842533
55:45.3,1.42136E+12,-1.2082874,-11.557616,0.7656578,11.64580087
55:45.3,1.42136E+12,-1.8809885,-11.363769,2.0616627,11.70144507
55:45.3,1.42136E+12,-1.5923886,-12.804672,-1.4877563,12.98879307
55:45.4,1.42136E+12,-0.9017249,-13.853991,-3.5112484,14.32044133
55:45.4,1.42136E+12,-1.567241,-14.941628,-1.8203645,15.13348005
55:45.4,1.42136E+12,-1.7696201,-15.548167,-2.2839506,15.81434421
55:45.4,1.42136E+12,-0.93061477,-14.313984,-1.3278886,14.40553609
55:45.4,1.42136E+12,-2.6137147,-11.677815,2.233655,12.17341704
55:45.5,1.42136E+12,-4.127367,-9.227262,5.170548,11.35394597
55:45.5,1.42136E+12,-5.763914,-10.966794,3.237318,12.8052139
55:45.5,1.42136E+12,-7.8944335,-12.76725,0.07948471,15.01103163
55:45.5,1.42136E+12,-7.034771,-13.5715275,-3.3028817,15.63916204
55:45.5,1.42136E+12,-4.6493316,-11.341465,-2.1624033,12.44673052
55:45.6,1.42136E+12,-1.7851877,-11.6700325,6.462062,13.45863288
55:45.6,1.42136E+12,-2.2074594,-9.662257,1.9142194,10.09437087
55:45.6,1.42136E+12,-2.2990692,-7.644304,1.7501606,8.172157913
55:45.6,1.42136E+12,-2.1456382,-6.3682075,3.0371842,7.374436786
55:45.7,1.42136E+12,-2.7017317,-4.9626303,2.717,6.269700366
55:45.7,1.42136E+12,-3.6051033,-3.974984,2.199077,5.799414389
55:45.7,1.42136E+12,-3.7766464,-3.1392717,2.2682333,5.409525593
55:45.7,1.42136E+12,-3.6317477,-2.6375153,2.068249,4.942037256
55:45.7,1.42136E+12,-3.517685,-1.7747095,1.40902,4.184380352
55:45.7,1.42136E+12,-3.7359312,-1.7085471,0.5228627,4.141219691
55:45.8,1.42136E+12,-3.7256026,-3.4009278,-1.1713142,5.178648626
55:45.9,1.42136E+12,-4.176465,-7.008276,-5.423073,9.796352033
55:45.9,1.42136E+12,-6.195317,-15.022311,-13.417349,21.07313538
55:45.9,1.42136E+12,-3.1379247,-18.961071,-15.683336,24.80596325
55:45.9,1.42136E+12,-2.9876373,-11.974648,-9.834399,15.78079767
55:45.9,1.42136E+12,-3.639382,-7.9080553,-3.6824923,9.452152639
55:45.9,1.42136E+12,-6.3378205,-6.89092,-2.8657906,9.791093039
55:45.9,1.42136E+12,-7.3976164,-11.370206,-1.7486637,13.67713923
55:45.9,1.42136E+12,-7.278764,-10.356364,7.547455,14.73766459
55:45.9,1.42136E+12,-6.3493466,-5.945486,5.728288,10.41519512
55:46.0,1.42136E+12,-4.2390347,-4.236041,3.6401303,7.01170501
55:46.0,1.42136E+12,-3.864813,-7.1229377,5.153783,9.603879436
55:46.0,1.42136E+12,-1.6093035,-10.394534,6.267317,12.24399678
55:46.0,1.42136E+12,-0.028740235,-12.925322,4.252956,13.60707204
55:46.0,1.42136E+12,0.91100556,-13.5836525,-0.8690927,13.64187921
55:46.1,1.42136E+12,-0.029937744,-10.921289,1.0436298,10.97108075
55:46.1,1.42136E+12,-1.7441729,-8.787027,1.3593233,9.061001183
55:46.1,1.42136E+12,-2.2171893,-8.326585,0.96324694,8.670397385
55:46.2,1.42136E+12,-2.872377,-8.746911,-0.6129753,9.226848887
55:46.2,1.42136E+12,-2.8562105,-8.572224,-0.7813751,9.06926181
55:46.2,1.42136E+12,-2.5454566,-8.486452,-0.73302567,8.890249911
55:46.2,1.42136E+12,-2.0637584,-7.96823,-0.37736526,8.239793238
55:46.2,1.42136E+12,-2.191892,-7.8550653,0.511636,8.171181849
55:46.2,1.42136E+12,-2.8214827,-8.38661,1.153651,8.923390754
55:46.2,1.42136E+12,-3.3418007,-9.293574,1.1567944,9.94365742
55:46.3,1.42136E+12,-3.2927027,-9.8221245,0.40281236,10.36717312
55:46.3,1.42136E+12,-2.416425,-10.355316,-1.7399817,10.7749346
55:46.3,1.42136E+12,-0.7206015,-11.366913,-4.156706,12.12452813
55:46.3,1.42136E+12,-0.23965164,-11.911031,-1.905238,12.06482591
55:46.3,1.42136E+12,-1.0690769,-11.751313,1.5525714,11.90154446
55:46.4,1.42136E+12,-1.8996996,-12.586876,-0.5734575,12.74233729
55:46.4,1.42136E+12,-1.4817686,-13.279485,-4.1580534,13.99391897
55:46.4,1.42136E+12,-1.3421091,-14.571598,-3.06323,14.95045495
55:46.4,1.42136E+12,-1.7657281,-15.675702,-2.6622138,15.99790021
55:46.5,1.42136E+12,-0.7921527,-14.773528,-1.592688,14.88023153
55:46.5,1.42136E+12,-1.9242485,-13.514048,4.667145,14.42617302
55:46.5,1.42136E+12,-4.4869194,-10.14665,5.0222063,12.17823912
55:46.5,1.42136E+12,-6.903494,-11.0123,1.9955003,13.14956281
55:46.5,1.42136E+12,-10.113568,-12.95002,-1.2449611,16.47838596
55:46.5,1.42136E+12,-8.454868,-12.66651,-3.9077737,15.72246685
55:46.6,1.42136E+12,-5.419929,-11.082205,-0.8801697,12.36792613
55:46.6,1.42136E+12,-2.6188042,-10.640324,6.222261,12.60123654
55:46.6,1.42136E+12,-2.2194347,-9.899364,0.9662407,10.19102149
55:46.6,1.42136E+12,-1.9267932,-8.287067,1.8492545,8.706764824
55:46.6,1.42136E+12,-1.9835253,-6.3358746,2.7388544,7.181852337
55:46.7,1.42136E+12,-2.4508533,-4.6701384,2.9642859,6.050112848
55:46.7,1.42136E+12,-3.070415,-3.127147,3.0714629,5.351670859
55:46.7,1.42136E+12,-2.9991632,-2.5750952,2.7966344,4.842236999
55:46.7,1.42136E+12,-3.1232553,-1.8519489,2.1311183,4.210237951
55:46.7,1.42136E+12,-3.3808694,-0.9517209,1.3762381,3.772278076
55:46.8,1.42136E+12,-3.6091447,-1.201701,0.470771,3.832967009
55:46.8,1.42136E+12,-3.3587155,-3.355123,-0.3993695,4.764170038
55:46.8,1.42136E+12,-4.2098455,-8.269703,-6.310577,11.22203943
55:46.8,1.42136E+12,-6.1393332,-17.23965,-16.859291,24.88237604
55:46.8,1.42136E+12,-3.044519,-16.990417,-15.150146,22.96672135
55:46.9,1.42136E+12,-3.0148804,-7.292086,-8.104446,11.31132472
55:46.9,1.42136E+12,-5.7425084,-5.8368125,-3.3817675,8.858957857
55:46.9,1.42136E+12,-7.2437367,-4.059408,-1.4765296,8.433899119
55:46.9,1.42136E+12,-6.238427,-4.69349,1.6530125,7.979929206
55:46.9,1.42136E+12,-8.4045725,-10.147847,4.476591,13.91601612
55:47.0,1.42136E+12,-10.092912,-18.050364,-2.3017635,20.80818657
55:47.0,1.42136E+12,-0.69994444,-11.861184,2.9600945,12.24498949
55:47.0,1.42136E+12,-0.98824495,-6.109096,6.023624,8.636071335
55:47.0,1.42136E+12,-2.2602997,-4.792434,7.8192897,9.445510563
55:47.0,1.42136E+12,-2.6195526,-7.3883357,7.215745,10.65441393
55:47.1,1.42136E+12,-0.8107141,-13.216316,2.8797116,13.55068282
55:47.1,1.42136E+12,1.169967,-13.834531,-1.7778529,13.99727944
55:47.2,1.42136E+12,-0.41837996,-10.900332,-0.3264711,10.91324255
55:47.2,1.42136E+12,-2.855462,-8.611443,0.37826338,9.080401806
55:47.2,1.42136E+12,-4.495601,-7.325317,-0.7244934,8.625287716
55:47.2,1.42136E+12,-4.660558,-7.373367,-0.48544052,8.736303239
55:47.2,1.42136E+12,-3.2006443,-7.580985,-0.017363891,8.228958562
55:47.2,1.42136E+12,-1.4482384,-7.9920306,0.15552658,8.123677498
55:47.2,1.42136E+12,-0.7710466,-8.528215,0.30701157,8.568501622
55:47.2,1.42136E+12,-1.1244617,-9.386531,0.22647904,9.456356121
55:47.3,1.42136E+12,-1.7110918,-9.855057,-0.009131012,10.00250304
